"Time (s)","Linear Acceleration x (m/s^2)","Linear Acceleration y (m/s^2)","Linear Acceleration z (m/s^2)","Absolute acceleration (m/s^2)"
3.108500037E-3,-3.249829835E-1,9.699460727E-1,-7.300769144E-1,1.256750423E0
1.305950002E-2,-2.494816884E-1,1.201871204E0,-9.208078265E-2,1.230940443E0
2.301050001E-2,-4.734367722E-1,1.047374902E0,-1.628449559E-2,1.149522400E0
3.296149999E-2,-5.596878809E-1,1.009390512E0,-6.711761570E-1,1.335139380E0
4.291349999E-2,-5.821949834E-1,1.142838884E0,-8.166081047E-1,1.520486932E0
5.286450009E-2,-3.928712037E-1,1.124897580E0,-6.371705049E-1,1.351195249E0
6.281550007E-2,-1.991471019E-1,1.053358066E0,-4.445450950E-1,1.160535706E0
7.276737504E-2,-2.237761590E-1,9.737643045E-1,-4.715118688E-1,1.104814977E0
8.271837502E-2,-3.197889018E-1,9.027960634E-1,-7.288098228E-1,1.203523756E0
9.266937501E-2,-3.938713700E-1,8.553991181E-1,-9.820433772E-1,1.360607034E0
1.026203750E-1,-4.036420673E-1,8.577888751E-1,-1.143176853E0,1.485120194E0
1.125713751E-1,-3.653770110E-1,8.555075839E-1,-1.336825526E0,1.628648542E0
1.225233751E-1,-3.430409396E-1,8.564501551E-1,-1.540138476E0,1.795330187E0
1.324743751E-1,-2.056658703E-1,8.892287689E-1,-1.736944061E0,1.962141923E0
1.424253751E-1,-5.326521099E-2,9.116338375E-1,-1.852680339E0,2.065511529E0
1.523763750E-1,-2.897353828E-2,9.171147251E-1,-1.883611525E0,2.095216281E0
1.623273750E-1,-6.615773678E-2,8.441347495E-1,-1.789012347E0,1.979268930E0
1.722783750E-1,-1.813104630E-2,6.843756616E-1,-1.617533977E0,1.756449529E0
1.822293750E-1,5.703403383E-2,5.836497706E-1,-1.521857741E0,1.630935597E0
1.921803750E-1,7.763348222E-2,5.166626063E-1,-1.526977564E0,1.613885896E0
2.021323751E-1,1.474024594E-1,4.811251299E-1,-1.634965696E0,1.710649498E0
2.120833751E-1,1.578561115E-1,4.955231676E-1,-1.994006957E0,2.060709952E0
2.220343751E-1,1.081574097E-1,5.248761901E-1,-2.253597019E0,2.316439631E0
2.319853751E-1,7.059635818E-2,5.172967368E-1,-2.415457889E0,2.471237862E0
2.419363750E-1,2.153564608E-1,4.709609149E-1,-2.384599208E0,2.440183594E0
2.518873750E-1,6.730370334E-1,2.278187777E-1,-2.173415905E0,2.286616920E0
2.618383750E-1,1.430046223E0,-3.102827910E-1,-2.015460976E0,2.490660666E0
2.717893750E-1,2.325663368E0,-9.910194379E-1,-1.996007874E0,3.221005597E0
2.817413750E-1,3.106409622E0,-1.606529810E0,-2.110346668E0,4.084639742E0
2.916923751E-1,3.353064181E0,-2.079314032E0,-2.526656728E0,4.685144658E0
3.016433751E-1,3.203700566E0,-2.611317686E0,-3.300380183E0,5.289157469E0
3.115943751E-1,3.090117525E0,-3.305408204E0,-4.025807977E0,6.056540232E0
3.215453750E-1,3.225024192E0,-4.171597189E0,-4.605119698E0,7.000723647E0
3.314963750E-1,3.595383030E0,-5.301002680E0,-4.960485983E0,8.101470838E0
3.414473750E-1,3.788343778E0,-6.548923631E0,-5.148609622E0,9.151400458E0
3.513983750E-1,3.583671642E0,-7.481072132E0,-5.365885139E0,9.879365668E0
3.613503750E-1,3.039927657E0,-8.251511207E0,-5.510607235E0,1.037763891E1
3.713013751E-1,2.258387643E0,-8.811911278E0,-5.550379996E0,1.065630392E1
3.812523751E-1,2.256151083E0,-9.287715003E0,-5.568919762E0,1.106185947E1
3.912033751E-1,3.805203055E0,-9.569693470E0,-5.371230079E0,1.161502113E1
4.011543751E-1,4.910799268E0,-8.648949963E0,-4.174138974E0,1.078627466E1
4.111053750E-1,1.187851920E0,-8.185476846E0,-3.098547748E0,8.832554643E0
4.210563750E-1,-1.505982551E0,-7.897061765E0,-2.601856599E0,8.449924598E0
4.310073750E-1,-1.497933859E-1,-7.546367404E0,-2.882988389E0,8.079710460E0
4.409583750E-1,-9.805786496E-1,-7.392774498E0,-2.303760282E0,7.805252123E0
4.509103750E-1,-2.660319400E0,-6.909729581E0,-1.776460714E0,7.614294114E0
4.608613751E-1,-3.006019653E0,-5.521461421E0,-1.655312253E0,6.500980621E0
4.708123751E-1,-1.980801605E0,-3.931335098E0,-1.448062372E0,4.634204925E0
4.807633751E-1,-2.765072268E-1,-2.648053696E0,-7.217738682E-1,2.758550731E0
4.907143750E-1,2.556717263E0,-1.366525873E0,6.407145023E-2,2.899707102E0
5.006653750E-1,5.491017308E0,1.045838839E-1,1.436434014E0,5.676755371E0
5.106163750E-1,7.363334352E0,1.807179354E0,3.540124211E0,8.367620296E0
5.205683750E-1,7.995920055E0,3.506024419E0,6.314430987E0,1.077492383E1
5.305193750E-1,9.133811610E0,5.264065819E0,9.855086710E0,1.443120361E1
5.404703751E-1,1.147552909E1,7.211948184E0,1.358659731E1,1.919102892E1
5.504213751E-1,1.296817707E1,9.504985843E0,1.664556467E1,2.314288650E1
5.603723751E-1,1.382448777E1,1.173733700E1,1.844370159E1,2.586603314E1
5.703233751E-1,1.466868771E1,1.357888366E1,1.901583761E1,2.758910221E1
5.802743750E-1,1.496427382E1,1.535127296E1,1.866856914E1,2.842721488E1
5.902253750E-1,1.455233748E1,1.670330007E1,1.737842895E1,2.815635900E1
6.001763750E-1,1.350450006E1,1.762910961E1,1.500345367E1,2.680038525E1
6.101283750E-1,1.159673603E1,1.820915340E1,1.238003254E1,2.488619617E1
6.200793750E-1,9.310302213E0,1.772431865E1,1.007388484E1,2.241241519E1
6.300303751E-1,6.595400809E0,1.651325270E1,8.276796321E0,1.961357142E1
6.399813751E-1,3.570758359E0,1.494658015E1,7.184748691E0,1.696381994E1
6.499323751E-1,7.165107894E-1,1.322790688E1,6.733606768E0,1.486042961E1
6.598833750E-1,-1.690213113E0,1.153683130E1,6.368409559E0,1.328577951E1
6.698343750E-1,-3.549324220E0,1.015361280E1,5.942517081E0,1.228849318E1
6.797853750E-1,-4.582257085E0,9.233359287E0,5.647522128E0,1.175357435E1
6.897373750E-1,-4.916754658E0,8.602808999E0,5.634551250E0,1.139872654E1
6.996883750E-1,-4.990502080E0,8.094058553E0,5.650944504E0,1.106128693E1
7.096393751E-1,-5.021099390E0,7.510885915E0,5.270343390E0,1.045951078E1
7.195903751E-1,-5.226660011E0,6.727567763E0,4.490633554E0,9.630365133E0
7.295413751E-1,-5.645417131E0,5.866754708E0,3.368170170E0,8.811022397E0
7.394923751E-1,-6.114688346E0,5.085632186E0,2.174252642E0,8.245025340E0
7.494433750E-1,-6.079682236E0,4.329586325E0,1.201052594E0,7.559787111E0
7.593943750E-1,-5.534004284E0,3.646709889E0,6.425411725E-1,6.658570086E0
7.693463750E-1,-4.452158875E0,3.112830741E0,5.161226159E-1,5.456905390E0
7.792973750E-1,-2.871334888E0,2.669186118E0,7.028820992E-1,3.982858498E0
7.892483750E-1,-1.393238293E0,2.386769695E0,9.106257775E-1,2.909814740E0
7.991993751E-1,-3.165074444E-1,2.287597409E0,1.078145875E0,2.548661883E0
8.091503751E-1,1.012274652E0,2.607746207E0,1.792846366E0,3.322549976E0
8.191013751E-1,2.355763080E0,2.963247563E0,3.435016709E0,5.111731174E0
8.290523750E-1,4.137543005E0,3.598200511E0,5.768609194E0,7.958841691E0
8.390033750E-1,6.492222596E0,4.765952627E0,8.175614932E0,1.147623362E1
8.489553750E-1,9.505080568E0,5.900903032E0,1.018166072E1,1.512724126E1
8.589063750E-1,1.339033434E1,6.266989603E0,1.106639591E1,1.846730437E1
8.688573750E-1,1.692537031E1,5.611590403E0,1.072756145E1,2.080958149E1
8.788083751E-1,1.862730650E1,4.887416253E0,9.733047134E0,2.157766419E1
8.887593751E-1,1.937725752E1,3.767121894E0,7.979344953E0,2.129176513E1
8.987103751E-1,2.017659178E1,1.883815008E0,5.794417634E0,2.107650091E1
9.086613751E-1,2.047360695E1,-3.225546348E-1,3.607201130E0,2.079145312E1
9.186123750E-1,1.967646773E1,-2.620868821E0,1.603330944E0,1.991489407E1
9.285643750E-1,1.787937512E1,-5.215632747E0,-3.456777415E-1,1.862778496E1
9.385153750E-1,1.540830202E1,-7.795534805E0,-2.168379114E0,1.740367783E1
9.484663750E-1,1.277906876E1,-1.015815725E1,-3.560632735E0,1.670840694E1
9.584173750E-1,9.031225135E0,-1.224833804E1,-4.306936843E0,1.581564154E1
9.683683751E-1,5.327408706E0,-1.341920322E1,-4.301531677E0,1.506517419E1
9.783193751E-1,2.805136805E0,-1.413239864E1,-3.403859528E0,1.480472031E1
9.882703751E-1,7.141871059E-1,-1.473557986E1,-1.954863503E0,1.488183014E1
9.982213750E-1,-1.241924339E0,-1.505074361E1,-7.181019630E-1,1.511895928E1
1.008173375E0,-2.508285361E0,-1.513227368E1,-1.718933760E-1,1.533971152E1
1.018124375E0,-2.968029708E0,-1.513053706E1,-7.481629372E-2,1.541907745E1
1.028075375E0,-3.441357138E0,-1.514006217E1,-1.903713814E-1,1.552741649E1
1.038026375E0,-4.250418241E0,-1.506089906E1,-3.601785439E-1,1.565332119E1
1.047977375E0,-4.856430103E0,-1.499882853E1,-6.773788834E-1,1.578000674E1
1.057928375E0,-5.039666054E0,-1.482766649E1,-8.044189990E-1,1.568135891E1
1.067879375E0,-4.756895290E0,-1.451082108E1,-9.299938023E-1,1.529891727E1
1.077830333E0,-4.279536206E0,-1.491941866E1,-1.403890750E0,1.558442788E1
1.087782333E0,-3.462305665E0,-1.492694987E1,-1.865842422E0,1.543641024E1
1.097733333E0,-2.896842781E0,-1.465748913E1,-2.159705354E0,1.509629136E1
1.107684333E0,-2.596497918E0,-1.445577890E1,-2.430910910E0,1.488692960E1
1.117635333E0,-2.896277063E0,-1.422930571E1,-2.851768935E0,1.479845086E1
1.127586333E0,-3.750437449E0,-1.420881356E1,-3.080271106E0,1.501480049E1
1.137537333E0,-4.486077989E0,-1.441652537E1,-2.855352108E0,1.536600583E1
1.147488333E0,-4.804996825E0,-1.490182439E1,-2.353035353E0,1.583316582E1
1.157440333E0,-4.876633987E0,-1.525454598E1,-1.818822037E0,1.611802859E1
1.167391333E0,-4.715295274E0,-1.560726523E1,-1.648210225E0,1.638710879E1
1.177342333E0,-4.178050761E0,-1.625835386E1,-2.031760674E0,1.690911677E1
1.187293333E0,-3.173756390E0,-1.699849325E1,-2.748212991E0,1.750925975E1
1.197244333E0,-1.481163459E0,-1.773900920E1,-3.394010478E0,1.812141274E1
1.207195333E0,1.155329706E0,-1.823191310E1,-3.603131468E0,1.862041886E1
1.217146333E0,4.436522251E0,-1.811233287E1,-2.890866342E0,1.887051774E1
1.227097333E0,7.906505603E0,-1.668884693E1,-1.357225292E0,1.851681676E1
1.237049333E0,1.337522748E1,-1.398793265E1,-7.144164629E-3,1.935352735E1
1.247000333E0,2.068780683E1,-1.025156185E1,1.206887530E0,2.312004432E1
1.256951333E0,2.737089365E1,-5.554650802E0,2.879600512E0,2.807689555E1
1.266902333E0,3.041178025E1,-1.177427503E-1,4.859858910E0,3.079786470E1
1.276853333E0,2.982560858E1,5.546561179E0,6.248020651E0,3.097368286E1
1.286804333E0,2.862960038E1,1.073731344E1,6.672976404E0,3.129652587E1
1.296755333E0,3.017692801E1,1.526558786E1,7.666873841E0,3.467659313E1
1.306706333E0,3.248872996E1,1.838509144E1,9.406023472E0,3.849678480E1
1.316658333E0,3.049001132E1,2.020312177E1,1.042328287E1,3.803224613E1
1.326609333E0,2.405826823E1,2.068926863E1,9.549185531E0,3.313658176E1
1.336560333E0,1.590745894E1,1.955875042E1,6.905804345E0,2.613966529E1
1.346511333E0,8.764855810E0,1.800469732E1,4.275053730E0,2.047603251E1
1.356462333E0,3.931301769E0,1.659436294E1,2.898606302E0,1.729826388E1
1.366413333E0,1.122649618E0,1.552132168E1,2.248781253E0,1.572351062E1
1.376364333E0,-6.033578110E-1,1.477172150E1,1.736656963E0,1.488569025E1
1.386315333E0,-1.743363134E0,1.436137209E1,1.594231653E0,1.455437728E1
1.396266333E0,-2.734225867E0,1.413721089E1,2.056908379E0,1.454536335E1
1.406218333E0,-3.339339012E0,1.384720420E1,3.348266541E0,1.463240028E1
1.416169333E0,-4.170794367E0,1.343823473E1,4.833455808E0,1.487763333E1
1.426120333E0,-5.619218681E0,1.301253755E1,5.955347627E0,1.537426153E1
1.436071333E0,-7.376988770E0,1.222998013E1,6.630156659E0,1.574647118E1
1.446022333E0,-9.442049922E0,1.103934318E1,6.971805376E0,1.611289778E1
1.455973333E0,-1.162658255E1,9.537193476E0,7.010092945E0,1.659147023E1
1.465924333E0,-1.351560041E1,8.048768359E0,6.683296155E0,1.709153516E1
1.475875333E0,-1.457051998E1,6.852694670E0,5.853926502E0,1.713265689E1
1.485827333E0,-1.447644997E1,6.060339646E0,4.724671869E0,1.638956512E1
1.495778333E0,-1.323723319E1,5.656937900E0,3.708741539E0,1.486539783E1
1.505729333E0,-1.120743075E1,5.470459667E0,3.076254069E0,1.284506800E1
1.515680333E0,-9.097684588E0,5.209759219E0,3.101207646E0,1.093283791E1
1.525631333E0,-7.084854859E0,4.966003416E0,3.266688527E0,9.248113983E0
1.535582333E0,-4.995344744E0,4.709200137E0,3.110585411E0,7.536960703E0
1.545533333E0,-3.211055194E0,4.354842496E0,2.795404699E0,6.090140889E0
1.555484333E0,-2.153731254E0,4.753527001E0,2.767087219E0,5.906889955E0
1.565436333E0,-1.230136060E0,5.906230431E0,3.503135895E0,6.976299429E0
1.575387333E0,-9.534469843E-3,7.204909891E0,5.063344939E0,8.806150090E0
1.585338333E0,2.127709975E0,9.221909854E0,7.413637948E0,1.202217945E1
1.595289333E0,7.433146598E0,1.189290685E1,9.668719575E0,1.703458365E1
1.605240333E0,1.581554188E1,1.370993380E1,1.062580002E1,2.347341636E1
1.615191333E0,2.313828837E1,1.417868402E1,1.015287956E1,2.897406483E1
1.625142333E0,2.691395948E1,1.330305646E1,7.540975102E0,3.095478689E1
1.635093333E0,2.785402803E1,1.173183477E1,3.148511036E0,3.038743073E1
1.645045333E0,2.808437792E1,9.624510532E0,-1.283705180E0,2.971550749E1
1.654996333E0,2.845079252E1,6.878117194E0,-4.731556381E0,2.965035779E1
1.664947333E0,2.812136507E1,3.278518614E0,-7.337447559E0,2.924718780E1
1.674898333E0,2.567521281E1,-6.804638743E-1,-8.945777434E0,2.719754617E1
1.684849333E0,2.134948243E1,-4.301716449E0,-9.514832554E0,2.376630394E1
1.694800333E0,1.687128590E1,-7.634384372E0,-9.065155942E0,2.061798159E1
1.704751333E0,1.314844673E1,-1.053241180E1,-7.343654378E0,1.837777487E1
1.714702333E0,1.008733110E1,-1.295769535E1,-4.712348862E0,1.708397932E1
1.724654333E0,7.191562452E0,-1.470803480E1,-2.452701729E0,1.655477586E1
1.734605333E0,4.599558411E0,-1.577024350E1,-1.307732120E0,1.647928035E1
1.744556333E0,2.499634990E0,-1.641025985E1,-1.171251674E0,1.664081229E1
1.754507333E0,8.814344305E-1,-1.687767925E1,-1.785386488E0,1.699472237E1
1.764458333E0,-4.899396613E-1,-1.705824361E1,-2.854203131E0,1.730231751E1
1.774409333E0,-1.630120986E0,-1.702615292E1,-3.873854045E0,1.753721536E1
1.784360333E0,-2.419420839E0,-1.687931881E1,-4.436546810E0,1.761953314E1
1.794311333E0,-2.801553339E0,-1.671627972E1,-4.461657677E0,1.752681084E1
1.804263333E0,-2.766311586E0,-1.656222898E1,-4.076217408E0,1.727933613E1
1.814214333E0,-2.397647855E0,-1.650458713E1,-3.504090160E0,1.704197052E1
1.824165333E0,-1.971370338E0,-1.657455023E1,-2.893494666E0,1.694031664E1
1.834116333E0,-1.730291976E0,-1.670678151E1,-2.369862471E0,1.696250886E1
1.844067333E0,-1.753270949E0,-1.676918767E1,-1.940942305E0,1.697194365E1
1.854018333E0,-1.817029865E0,-1.667457972E1,-1.509091516E0,1.684103808E1
1.863969333E0,-1.834617121E0,-1.657379711E1,-9.302241826E-1,1.670095469E1
1.873920333E0,-1.782296235E0,-1.650175941E1,-3.819746250E-1,1.660212481E1
1.883872333E0,-1.702381754E0,-1.634508678E1,-6.883460124E-2,1.643364548E1
1.893823333E0,-1.825499557E0,-1.632667974E1,-2.441370410E-1,1.643023198E1
1.903774333E0,-2.499235041E0,-1.658320294E1,-1.108650214E0,1.680707889E1
1.913725333E0,-3.491434739E0,-1.701289494E1,-2.364152665E0,1.752763329E1
1.923676333E0,-4.332443859E0,-1.760864903E1,-3.601514128E0,1.848798244E1
1.933627333E0,-4.766239725E0,-1.791920869E1,-4.603062063E0,1.910505853E1
1.943578333E0,-4.215222388E0,-1.750183560E1,-4.712984455E0,1.860899169E1
1.953529333E0,-1.390848536E0,-1.635647131E1,-3.471198403E0,1.677849313E1
1.963481333E0,4.849683586E0,-1.478271777E1,-1.634851091E0,1.564355822E1
1.973432333E0,1.335078144E1,-1.246205378E1,4.707300961E-1,1.826931132E1
1.983383333E0,2.153116945E1,-8.613046889E0,3.030678531E0,2.338719408E1
1.993334333E0,2.678641299E1,-2.925176634E0,5.969474500E0,2.759897109E1
2.003285333E0,3.038513800E1,3.553358214E0,9.385438349E0,3.199952217E1
2.013236333E0,3.405416291E1,9.538668144E0,1.285225368E1,3.762781718E1
2.023187333E0,3.731719225E1,1.406936916E1,1.367588429E1,4.216099853E1
2.033138333E0,3.646666094E1,1.683504135E1,1.090412398E1,4.161893676E1
2.043090333E0,3.056739103E1,1.723879159E1,5.458897383E0,3.551536134E1
2.053041333E0,2.186683939E1,1.673332085E1,-3.609025754E-2,2.753477790E1
2.062992333E0,1.353898343E1,1.567860009E1,-3.704909858E0,2.104397610E1
2.072942500E0,7.482952012E0,1.435264220E1,-5.488445703E0,1.709139974E1
2.082893500E0,4.126333893E0,1.309967861E1,-4.577340161E0,1.447688689E1
2.092844500E0,2.383151438E0,1.234380670E1,-2.016388344E0,1.273243090E1
2.102795500E0,1.253498610E0,1.196965039E1,3.456370302E-1,1.204006870E1
2.112746500E0,1.198158807E-1,1.202128598E1,2.236745929E0,1.222819303E1
2.122697500E0,-1.305445858E0,1.231214754E1,3.580981631E0,1.288862271E1
2.132649500E0,-3.080167610E0,1.246386992E1,3.945908114E0,1.343151804E1
2.142600500E0,-5.363721085E0,1.269038755E1,3.477562512E0,1.420946449E1
2.152551500E0,-7.520001140E0,1.295265388E1,3.061605039E0,1.528708884E1
2.162502500E0,-9.277251996E0,1.288485658E1,3.022147443E0,1.616231137E1
2.172453500E0,-1.108585661E1,1.264721521E1,2.826128894E0,1.705389322E1
2.182404500E0,-1.295722406E1,1.214299695E1,2.374488788E0,1.791592106E1
2.192355500E0,-1.450538200E1,1.143087858E1,2.049056153E0,1.858143491E1
2.202306500E0,-1.552008909E1,1.066490971E1,1.954539421E0,1.893234504E1
2.212258500E0,-1.601985061E1,9.910859792E0,1.978898336E0,1.894140423E1
2.222209500E0,-1.588069039E1,9.317275017E0,2.178968421E0,1.854065383E1
2.232160500E0,-1.518720827E1,8.725744370E0,2.556579854E0,1.770101722E1
2.242111500E0,-1.440126414E1,8.031013874E0,2.982408596E0,1.675674054E1
2.252062500E0,-1.363727512E1,7.135918593E0,3.151584917E0,1.571079548E1
2.262013500E0,-1.288938350E1,6.283585171E0,3.301319246E0,1.471456280E1
2.271964500E0,-1.175604342E1,5.649084504E0,3.746612785E0,1.357032866E1
2.281915500E0,-1.019308384E1,5.401242667E0,4.464988836E0,1.236966070E1
2.291867500E0,-8.755283918E0,5.904166948E0,5.481841857E0,1.189809960E1
2.301818500E0,-6.971031790E0,7.436878291E0,7.115015967E0,1.243084451E1
2.311769500E0,-4.152162214E0,1.018289799E1,9.627738195E0,1.461592301E1
2.321720500E0,6.857871795E-1,1.366651471E1,1.259339627E1,1.859670826E1
2.331671500E0,8.436676154E0,1.713410304E1,1.505456652E1,2.431861355E1
2.341622500E0,1.695416434E1,1.957657039E1,1.622038438E1,3.055792313E1
2.351573500E0,2.319155183E1,2.077964320E1,1.541347798E1,3.474502771E1
2.361524500E0,2.646688838E1,2.092113646E1,1.427849833E1,3.663421415E1
2.371476500E0,2.897558247E1,1.866740671E1,1.238022316E1,3.662412290E1
2.381427500E0,3.029490143E1,1.531534766E1,9.773383566E0,3.532506126E1
2.391378500E0,3.008424262E1,1.109499347E1,7.095680394E0,3.284066404E1
2.401329500E0,2.816498998E1,6.443337534E0,4.454088457E0,2.923392144E1
2.411280500E0,2.486574064E1,2.249275342E0,1.951731588E0,2.504343334E1
2.421231500E0,2.143350224E1,-1.449257542E0,1.272704959E-2,2.148244697E1
2.431182500E0,1.832302910E1,-4.743509259E0,-1.076708556E0,1.895767857E1
2.441133500E0,1.528334936E1,-7.665734804E0,-1.105224257E0,1.713376136E1
2.451085500E0,1.243419530E1,-1.038634134E1,3.219582188E-1,1.620459676E1
2.461036500E0,9.883655037E0,-1.287195646E1,2.522796396E0,1.642371461E1
2.470987500E0,7.578342319E0,-1.492513256E1,4.167463793E0,1.724988721E1
2.480938500E0,5.544907002E0,-1.652322805E1,4.881836840E0,1.809959640E1
2.490889500E0,3.754990675E0,-1.763973751E1,4.891390021E0,1.868651896E1
2.500840500E0,2.281857197E0,-1.833953111E1,4.330079538E0,1.898143468E1
2.510791500E0,9.032702726E-1,-1.869852091E1,3.444457916E0,1.903457044E1
2.520742500E0,-5.035499328E-1,-1.880494024E1,2.424464940E0,1.896727102E1
2.530694500E0,-1.721533432E0,-1.865436391E1,1.597279222E0,1.880160289E1
2.540645500E0,-2.529620097E0,-1.841589341E1,1.192176009E0,1.862700704E1
2.550596500E0,-3.092159080E0,-1.832759928E1,1.020028206E0,1.861458570E1
2.560547500E0,-3.601579910E0,-1.841814692E1,7.494306866E-1,1.878193707E1
2.570498500E0,-4.224782586E0,-1.854833167E1,3.046937299E-1,1.902583070E1
2.580449500E0,-4.910000539E0,-1.852060417E1,-6.844282866E-2,1.916052110E1
2.590400500E0,-5.335746835E0,-1.835293293E1,-4.256644356E-1,1.911757128E1
2.600351500E0,-5.427718860E0,-1.816868833E1,-7.684480977E-1,1.897766793E1
2.610303500E0,-5.397601022E0,-1.782130759E1,-9.943002375E-1,1.864729830E1
2.620254500E0,-5.278990837E0,-1.726692839E1,-1.176631551E0,1.809417095E1
2.630205500E0,-4.824784387E0,-1.667405581E1,-1.329434791E0,1.740890802E1
2.640156500E0,-3.951797722E0,-1.617627182E1,-1.357440469E0,1.670721759E1
2.650107500E0,-2.644331066E0,-1.593026425E1,-1.366916467E0,1.620599477E1
2.660058500E0,-1.086174979E0,-1.596900322E1,-1.570113204E0,1.608272662E1
2.670009500E0,1.470451945E-1,-1.635640231E1,-2.135832342E0,1.649591764E1
2.679960500E0,8.329382086E-1,-1.643520875E1,-3.094267001E0,1.674468157E1
2.689912500E0,8.387924409E-1,-1.559792722E1,-4.060453899E0,1.613958464E1
2.699863500E0,1.440140564E0,-1.330498020E1,-4.105305551E0,1.399821548E1
2.709814500E0,4.106591939E0,-1.004548375E1,-3.518172594E0,1.140847840E1
2.719765500E0,9.750361909E0,-6.323474291E0,-2.712057903E0,1.193361398E1
2.729716500E0,1.753323398E1,-1.738904632E0,-1.416049451E0,1.767606515E1
2.739667500E0,2.602262630E1,2.746909647E0,7.818300354E-1,2.617888176E1
2.749618500E0,3.212713347E1,6.313488416E0,3.733714997E0,3.295380811E1
2.759569500E0,3.269432976E1,9.631838847E0,7.332464561E0,3.486339849E1
2.769520500E0,2.881061146E1,1.232100256E1,1.066404900E1,3.309955253E1
2.779472500E0,2.252615740E1,1.359617388E1,1.196731150E1,2.890502129E1
2.789423500E0,1.683733346E1,1.358439525E1,1.025997365E1,2.394365577E1
2.799374500E0,1.248054618E1,1.311939074E1,6.877571064E0,1.936965230E1
2.809325500E0,8.848868605E0,1.272846345E1,4.001187690E0,1.601017677E1
2.819276500E0,5.527127958E0,1.239150010E1,1.699958668E0,1.367436572E1
2.829227500E0,2.606333227E0,1.201363081E1,1.142984388E-1,1.229363096E1
2.839178500E0,2.711014760E-1,1.150940435E1,-3.971580899E-1,1.151944526E1
2.849129500E0,-1.121548587E0,1.088727932E1,5.253688180E-1,1.095749673E1
2.859081500E0,-1.800945345E0,1.034372215E1,2.761410742E0,1.085639818E1
2.869032500E0,-2.225552604E0,9.954608660E0,5.008561206E0,1.136367033E1
2.878983500E0,-3.136069915E0,9.686835419E0,6.563434081E0,1.211397465E1
2.888934500E0,-4.723165042E0,9.569924435E0,7.043006337E0,1.278654292E1
2.898885500E0,-6.621143761E0,9.441545892E0,6.204633726E0,1.309503010E1
2.908836500E0,-8.317468384E0,9.147579464E0,4.837382798E0,1.327624807E1
2.918787500E0,-9.558379692E0,8.677735806E0,3.834816864E0,1.346742520E1
2.928738500E0,-1.057650448E1,7.935304309E0,3.061873426E0,1.357227212E1
2.938690500E0,-1.146627061E1,7.111243343E0,2.322867229E0,1.369090413E1
2.948641500E0,-1.222954509E1,6.150427113E0,1.611147648E0,1.378351637E1
2.958592500E0,-1.282035478E1,5.209737584E0,1.293216991E0,1.389875075E1
2.968543500E0,-1.321987631E1,4.405007513E0,1.650615184E0,1.403188339E1
2.978494500E0,-1.330602919E1,3.769592927E0,2.573656647E0,1.406712309E1
2.988445500E0,-1.301588801E1,3.308998102E0,3.449995229E0,1.386597549E1
2.998396500E0,-1.195481834E1,2.977372974E0,3.881318600E0,1.291692942E1
3.008347500E0,-1.051728154E1,2.474454248E0,3.805241647E0,1.145495521E1
3.018299500E0,-9.725742207E0,1.965215852E0,3.392704210E0,1.048630424E1
3.028250500E0,-9.481357244E0,1.827264247E0,3.113353482E0,1.014534375E1
3.038201500E0,-9.531587750E0,2.566578885E0,3.287495259E0,1.040413943E1
3.048152500E0,-9.306851771E0,4.695198394E0,4.281386265E0,1.126910139E1
3.058103500E0,-8.178339735E0,9.417498633E0,7.338360894E0,1.447156045E1
3.068054500E0,-1.668217642E0,1.615138373E1,1.208801908E1,2.024278518E1
3.078005500E0,1.509440360E1,1.951107573E1,1.503625188E1,2.888965155E1
3.087956500E0,3.410151834E1,2.285596141E1,1.526376821E1,4.379830071E1
3.097907500E0,4.462321336E1,2.498235050E1,1.367458972E1,5.293716474E1
3.107859500E0,4.576217145E1,2.119200288E1,8.926539509E0,5.121484579E1
3.117810500E0,4.021906247E1,1.562777141E1,1.483334531E0,4.317407215E1
3.127761500E0,3.356193026E1,9.782314603E0,-5.285515745E0,3.535581308E1
3.137712500E0,2.727422047E1,3.464843064E0,-1.069112628E1,2.949895626E1
3.147663500E0,2.068574627E1,-2.009124348E0,-1.302923252E1,2.452952465E1
3.157614500E0,1.539511304E1,-5.433088943E0,-1.071114949E1,1.952579536E1
3.167565500E0,1.170818396E1,-7.542101276E0,-6.353819586E0,1.530803340E1
3.177516500E0,9.298118370E0,-9.593755347E0,-4.090661200E0,1.397242484E1
3.187468500E0,7.485493212E0,-1.146924100E1,-3.461844027E0,1.412658705E1
3.197419500E0,5.671682823E0,-1.291752030E1,-2.635163509E0,1.435180837E1
3.207370500E0,3.891223199E0,-1.382302713E1,-1.587935371E0,1.444781076E1
3.217321500E0,2.351874096E0,-1.438165725E1,-1.190570875E0,1.462124605E1
3.227272500E0,1.123845666E0,-1.482916338E1,-1.648641749E0,1.496279169E1
3.237223500E0,-3.175038099E-3,-1.516647755E1,-2.440660558E0,1.536160393E1
3.247174500E0,-1.104951850E0,-1.540806579E1,-3.201279234E0,1.577585493E1
3.257125500E0,-2.120953225E0,-1.566211094E1,-3.778273119E0,1.625040029E1
3.267077500E0,-2.959114459E0,-1.591767403E1,-4.082205541E0,1.669709876E1
3.277028500E0,-3.338150565E0,-1.613722060E1,-4.005084275E0,1.695859186E1
3.286979500E0,-3.303392377E0,-1.645764685E1,-3.698903013E0,1.718861322E1
3.296930500E0,-2.990449395E0,-1.700190919E1,-3.371221540E0,1.758899765E1
3.306881500E0,-2.706954453E0,-1.759270952E1,-3.093775835E0,1.806661229E1
3.316832500E0,-2.825125804E0,-1.816412867E1,-2.697236381E0,1.857934311E1
3.326783500E0,-3.410359878E0,-1.875064767E1,-2.070966694E0,1.917045241E1
3.336734500E0,-4.410741000E0,-1.909328281E1,-1.340312659E0,1.964190731E1
3.346686500E0,-5.274860364E0,-1.913566811E1,-5.228416514E-1,1.985626625E1
3.356637500E0,-5.470893531E0,-1.908104108E1,3.581418125E-1,1.985308718E1
3.366588500E0,-4.936187879E0,-1.894280589E1,1.148787256E0,1.960906826E1
3.376539500E0,-3.747220603E0,-1.878670862E1,1.517408595E0,1.921677943E1
3.386490500E0,-2.286999823E0,-1.895226902E1,1.198777442E0,1.912736094E1
3.396441500E0,-1.280681438E0,-1.936692315E1,2.805705301E-1,1.941124873E1
3.406392500E0,-1.120450772E0,-1.965509733E1,-7.437344022E-1,1.970105078E1
3.416343500E0,-1.799654279E0,-1.902377930E1,-1.665385397E0,1.918114811E1
3.426295500E0,-1.093118255E0,-1.653234269E1,-2.275252182E0,1.672393599E1
3.436246500E0,3.372934189E0,-1.364246511E1,-1.893944725E0,1.418028794E1
3.446197500E0,1.142102953E1,-1.091991848E1,-6.584303963E-1,1.581512143E1
3.456148500E0,2.063579701E1,-5.954872248E0,9.480956125E-1,2.149873269E1
3.466099500E0,2.954399264E1,7.947874653E-1,2.609566737E0,2.966966509E1
3.476050500E0,3.686022533E1,6.924529468E0,4.366189603E0,3.775829619E1
3.486001500E0,3.865955626E1,1.211852752E1,6.276862042E0,4.099779258E1
3.495952500E0,3.459813406E1,1.526823080E1,7.880347499E0,3.862964702E1
3.505903500E0,2.758115017E1,1.600036769E1,7.733436790E0,3.281063327E1
3.515855500E0,2.056845112E1,1.550128912E1,5.176082765E0,2.627057249E1
3.525806500E0,1.517964314E1,1.477269331E1,2.388848380E0,2.131573668E1
3.535757500E0,1.102700204E1,1.381790848E1,1.135938768E-1,1.767886513E1
3.545708500E0,7.410435428E0,1.292250447E1,-2.209386806E0,1.505945102E1
3.555659500E0,4.111636916E0,1.209070647E1,-4.256203476E0,1.346127813E1
3.565610500E0,1.367706426E0,1.130834433E1,-4.650528005E0,1.230352320E1
3.575561500E0,-3.544009101E-1,1.073629953E1,-3.255583495E0,1.122464037E1
3.585512500E0,-1.228532753E0,1.009673576E1,-1.046494896E0,1.022489693E1
3.595464500E0,-1.988551505E0,9.569845498E0,9.496848857E-1,9.820294360E0
3.605415500E0,-2.972961250E0,9.147104670E0,2.401752015E0,9.913447189E0
3.615366500E0,-4.163882958E0,8.753801064E0,3.242140746E0,1.022146912E1
3.625317500E0,-5.359475421E0,8.363962519E0,3.471845105E0,1.052300120E1
3.635268500E0,-6.612611504E0,7.890771915E0,3.223381709E0,1.078800732E1
3.645219500E0,-8.101044222E0,7.307491103E0,2.797445962E0,1.126286143E1
3.655170500E0,-9.802396865E0,6.656725822E0,2.552059371E0,1.212072564E1
3.665121500E0,-1.169123171E1,5.872716529E0,2.497369194E0,1.331955522E1
3.675073500E0,-1.354143458E1,4.988760780E0,2.532443132E0,1.465167065E1
3.685024500E0,-1.505186745E1,4.187186451E0,2.664508345E0,1.584900151E1
3.694975500E0,-1.588108683E1,3.506985701E0,2.906674290E0,1.652139894E1
3.704926500E0,-1.594384032E1,2.910783421E0,3.204601622E0,1.652114329E1
3.714877500E0,-1.543275508E1,2.360164863E0,3.419861019E0,1.598235767E1
3.724828500E0,-1.448938635E1,1.846651275E0,3.556782929E0,1.503340090E1
3.734779500E0,-1.325734995E1,1.459846265E0,3.575264808E0,1.380836693E1
3.744730500E0,-1.208279635E1,8.552897751E-1,3.387142631E0,1.257768753E1
3.754681500E0,-1.130822739E1,7.919234991E-2,3.019741899E0,1.170474772E1
3.764633500E0,-1.066598092E1,-3.989613712E-1,2.789530002E0,1.103194438E1
3.774584500E0,-9.957466779E0,-2.650484383E-2,3.046284750E0,1.041305421E1
3.784535500E0,-1.006533972E1,1.415687508E0,3.759588926E0,1.083742330E1
3.794486500E0,-1.084187101E1,4.788975454E0,5.976830882E0,1.327414631E1
3.804437500E0,-8.020918071E0,1.072249426E1,1.042070074E1,1.696755768E1
3.814388500E0,3.922691159E0,1.719613966E1,1.455987805E1,2.287104663E1
3.824339500E0,2.185737860E1,2.116414908E1,1.680034397E1,3.475511132E1
3.834290500E0,3.570525757E1,2.258952952E1,1.705466862E1,4.556329645E1
3.844242500E0,3.862797662E1,2.176996038E1,1.478171322E1,4.673917841E1
3.854193500E0,3.459596825E1,1.875323331E1,1.102608052E1,4.086733696E1
3.864144500E0,3.022224627E1,1.442217729E1,6.900527233E0,3.419065140E1
3.874095500E0,2.772939112E1,9.814859036E0,2.348561064E0,2.950875004E1
3.884046500E0,2.596225262E1,4.966627899E0,-2.150715845E0,2.652039843E1
3.893997500E0,2.217351182E1,1.796364051E-1,-5.875398062E0,2.293942454E1
3.903948500E0,1.661304128E1,-3.828425272E0,-8.375325998E0,1.899463257E1
3.913899500E0,1.193929866E1,-6.235002410E0,-8.594897132E0,1.597793367E1
3.923851500E0,9.194988104E0,-8.211164249E0,-6.926737962E0,1.414039332E1
3.933802500E0,7.760121143E0,-1.027382687E1,-4.584283730E0,1.366699148E1
3.943753500E0,6.575505073E0,-1.209062460E1,-2.677613710E0,1.402105864E1
3.953704500E0,5.400380788E0,-1.359993598E1,-1.201423892E0,1.468215892E1
3.963655500E0,4.142453789E0,-1.486825084E1,-1.155737257E-1,1.543496563E1
3.973606500E0,2.754064008E0,-1.574891169E1,2.974460878E-1,1.599067110E1
3.983557500E0,1.441749133E0,-1.616013584E1,1.893562317E-2,1.622433325E1
3.993508500E0,3.777465034E-1,-1.634466110E1,-5.997687900E-1,1.636002328E1
4.003459500E0,-4.192225581E-1,-1.651050685E1,-1.190721733E0,1.655869567E1
4.013411500E0,-1.040082840E0,-1.662750963E1,-1.613691187E0,1.673797623E1
4.023362500E0,-1.638813164E0,-1.671248371E1,-1.901660711E0,1.689997437E1
4.033313500E0,-2.222736000E0,-1.692288992E1,-2.139557018E0,1.720181568E1
4.043264500E0,-2.803008419E0,-1.721318663E1,-2.435554769E0,1.760916174E1
4.053215500E0,-3.550716150E0,-1.739611795E1,-2.807124274E0,1.797532897E1
4.063166500E0,-4.429685102E0,-1.739206232E1,-3.187478635E0,1.822816397E1
4.073117250E0,-5.254467030E0,-1.732095199E1,-3.365603535E0,1.841065150E1
4.083068250E0,-5.762771333E0,-1.721830061E1,-3.223125601E0,1.844093132E1
4.093020250E0,-5.996229604E0,-1.690222586E1,-2.762038733E0,1.814576718E1
4.102971250E0,-6.019958775E0,-1.651659263E1,-2.211019349E0,1.771796665E1
4.112922250E0,-6.017622228E0,-1.632234930E1,-2.014066415E0,1.751249061E1
4.122873250E0,-6.237884502E0,-1.621082301E1,-2.164455632E0,1.750390968E1
4.132824250E0,-6.956886206E0,-1.579034974E1,-2.429518104E0,1.742515333E1
4.142775250E0,-7.146248285E0,-1.422112545E1,-2.725927498E0,1.614744421E1
4.152726250E0,-5.624044388E0,-1.169315661E1,-2.892350950E0,1.329381363E1
4.162677250E0,-1.908858633E0,-7.876711700E0,-1.902783961E0,8.325077494E0
4.172629250E0,3.667674204E0,-1.579159285E0,4.599431527E-1,4.019592743E0
4.182580250E0,1.245897697E1,6.865193093E0,3.699722793E0,1.469846700E1
4.192531250E0,2.534943870E1,1.560224013E1,7.607664936E0,3.072296381E1
4.202482250E0,3.689427484E1,2.254748102E1,1.133472580E1,4.469957970E1
4.212433250E0,4.111162356E1,2.700523217E1,1.236216345E1,5.071756345E1
4.222384250E0,3.660778934E1,2.802019421E1,8.581205292E0,4.689241525E1
4.232335250E0,2.621103762E1,2.592341776E1,1.710136331E0,3.690483230E1
4.242286250E0,1.562661600E1,2.197046843E1,-4.150854192E0,2.727860336E1
4.252237250E0,7.255329262E0,1.746066653E1,-7.352871344E0,2.028741963E1
4.262189250E0,1.506573120E0,1.373187255E1,-6.668286352E0,1.533949573E1
4.272140250E0,-1.660815652E0,1.043635374E1,-4.055839276E0,1.131925882E1
4.282091250E0,-3.334179429E0,7.451203385E0,-1.609399184E0,8.320297476E0
4.292042250E0,-4.948652388E0,4.727661551E0,1.434585124E-1,6.845474749E0
4.301993250E0,-6.823833983E0,2.388335579E0,1.647443655E0,7.415047381E0
4.311944250E0,-8.559626142E0,6.667749578E-1,2.707967775E0,9.002492878E0
4.321895250E0,-9.831045299E0,-8.119888043E-1,2.785643358E0,1.025029689E1
4.331846250E0,-1.055716189E1,-2.248152677E0,1.945664517E0,1.096783790E1
4.341798250E0,-1.091410050E1,-3.462426410E0,7.580985260E-1,1.147522112E1
4.351749250E0,-1.115712130E1,-4.399330451E0,-5.097310976E-1,1.200396976E1
4.361700250E0,-1.144235784E1,-5.171697938E0,-1.795564152E0,1.268456003E1
4.371651250E0,-1.149239831E1,-5.771383113E0,-2.768447281E0,1.315478553E1
4.381602250E0,-1.026927540E1,-6.039700729E0,-3.067455763E0,1.230224723E1
4.391553250E0,-8.160166588E0,-5.823996359E0,-2.484368495E0,1.032856908E1
4.401504250E0,-6.408737805E0,-5.124610895E0,-1.289797540E0,8.306451395E0
4.411455250E0,-6.435543196E0,-4.166090282E0,-8.382755470E-1,7.712018565E0
4.421407250E0,-7.429829473E0,-3.108519589E0,-1.536116177E0,8.199080006E0
4.431358250E0,-7.098204052E0,-2.359963135E0,-2.392086568E0,7.853407217E0
4.441309250E0,-4.172860188E0,-2.235794587E0,-2.221946041E0,5.229587344E0
4.451260250E0,1.363378024E0,-3.714582322E0,7.585603099E-1,4.028937231E0
4.461211250E0,6.337027552E0,-5.815272898E0,6.496813830E0,1.077886390E1
4.471162250E0,5.032122561E0,-6.138420441E0,1.099908510E1,1.356400885E1
4.481113250E0,-3.039534724E0,-3.232115110E0,1.072868178E1,1.160990750E1
4.491064250E0,-9.458051412E0,-1.408508297E0,6.284265202E0,1.144249192E1
4.501015250E0,-8.572851959E0,-1.169729059E0,3.817559391E0,9.457051152E0
4.510967250E0,-3.037346696E0,-1.011679405E-1,7.560874346E0,8.148774803E0
4.520918250E0,1.931089162E0,6.808620697E-1,1.305728513E1,1.321685944E1
4.530869250E0,3.353178494E0,1.438832542E0,1.641943763E1,1.681998744E1
4.540820250E0,9.632583198E-1,1.287179157E0,1.616820851E1,1.624794335E1
4.550771250E0,-3.052465841E0,6.680093050E-1,1.261925734E1,1.300036307E1
4.560722250E0,-5.098423555E0,2.204844689E-1,9.489689527E0,1.077481988E1
4.570673250E0,-4.179987067E0,-5.664724052E-2,8.577431499E0,9.541898758E0
4.580624250E0,-1.255975490E0,-3.048738241E-1,9.213801520E0,9.304007788E0
4.590576250E0,1.710002430E0,-1.573766398E-1,9.784345341E0,9.933895987E0
4.600527250E0,4.510952629E0,-3.195269465E-2,9.522897034E0,1.053732805E1
4.610478250E0,6.970331293E0,-3.642113686E-2,8.767650195E0,1.120082741E1
4.620429250E0,8.204800140E0,-4.984301108E-1,7.701926145E0,1.126440608E1
4.630380250E0,7.828551108E0,-1.418106501E0,6.008655522E0,9.970014027E0
4.640331250E0,6.841737573E0,-2.488581998E0,3.939268016E0,8.277695686E0
4.650282250E0,5.914175043E0,-3.541343356E0,1.824093887E0,7.130630947E0
4.660233250E0,5.292033636E0,-4.386199359E0,1.364739402E-1,6.874808358E0
4.670185250E0,4.650487660E0,-5.029852087E0,-1.217422459E0,6.957626387E0
4.680136250E0,4.155447180E0,-5.508101118E0,-2.175487574E0,7.234615772E0
4.690087250E0,4.085675279E0,-5.916308107E0,-2.621684507E0,7.653017297E0
4.700038250E0,4.222919371E0,-6.361368926E0,-2.781203567E0,8.126201813E0
4.709989250E0,4.189555743E0,-7.021307319E0,-2.975630504E0,8.700891373E0
4.719940250E0,3.737239698E0,-7.775551361E0,-3.300778964E0,9.236953031E0
4.729891250E0,2.658620199E0,-8.405857819E0,-3.681783535E0,9.554173802E0
4.739842250E0,9.833408743E-1,-8.899768032E0,-4.031742901E0,9.819764820E0
4.749793250E0,-8.259145331E-1,-9.436824850E0,-4.295706096E0,1.040138880E1
4.759745250E0,-2.146657292E0,-1.009494417E1,-4.275215113E0,1.117110110E1
4.769696250E0,-2.874623947E0,-1.072253986E1,-3.970481622E0,1.178987058E1
4.779647250E0,-2.808510064E0,-1.113775883E1,-3.869978510E0,1.212081409E1
4.789598250E0,-1.850908633E0,-1.149712286E1,-4.354986337E0,1.243284371E1
4.799549250E0,-8.244065362E-1,-1.169314258E1,-5.330453936E0,1.287722675E1
4.809500250E0,-1.584080887E-1,-1.164849324E1,-6.306829022E0,1.324721028E1
4.819451250E0,1.726478130E-1,-1.129349942E1,-6.397424612E0,1.298075414E1
4.829402250E0,4.989318019E-1,-1.044078593E1,-4.989424438E0,1.158245656E1
4.839354250E0,1.324664487E0,-8.694923111E0,-2.188562533E0,9.063455736E0
4.849305250E0,3.656402526E0,-6.366654809E0,1.152706060E0,7.431843927E0
4.859256250E0,7.737173746E0,-3.631626704E0,4.253344188E0,9.546910855E0
4.869207250E0,1.273004336E1,-4.466120857E-1,6.791228739E0,1.443517420E1
4.879158250E0,1.700772600E1,2.880946541E0,8.327957704E0,1.915509009E1
4.889109250E0,1.881540208E1,5.677490278E0,8.205664358E0,2.129756274E1
4.899060250E0,1.761483889E1,7.862649146E0,5.760543544E0,2.013175757E1
4.909011250E0,1.470828038E1,9.214464594E0,1.898321950E0,1.745976792E1
4.918963250E0,1.128928241E1,9.940928514E0,-1.781861787E0,1.514744165E1
4.928914250E0,7.854981108E0,1.011198062E1,-4.383600272E0,1.353398802E1
4.938865250E0,4.755251638E0,9.987067723E0,-5.399962127E0,1.230908326E1
4.948816250E0,2.063408729E0,9.757470953E0,-4.504836441E0,1.094346592E1
4.958767250E0,-5.068132639E-1,9.513057339E0,-2.593424914E0,9.873245282E0
4.968718250E0,-3.002876190E0,9.175878233E0,-5.474806853E-1,9.670250352E0
4.978669250E0,-5.247728698E0,8.937218864E0,1.696777782E0,1.050198040E1
4.988620250E0,-7.097584832E0,8.816080928E0,4.133760442E0,1.204935553E1
4.998572250E0,-8.410205809E0,8.742871449E0,6.145345298E0,1.359906731E1
5.008523250E0,-9.051474043E0,8.507894071E0,7.214397583E0,1.436526980E1
5.018474250E0,-9.324101057E0,8.138921315E0,7.030890906E0,1.423426597E1
5.028425250E0,-9.494422848E0,7.675283892E0,5.924542741E0,1.357034468E1
5.038376250E0,-9.987864114E0,7.248807278E0,4.572109827E0,1.316080639E1
5.048327250E0,-1.060368702E1,6.881240192E0,3.430419921E0,1.309799320E1
5.058278250E0,-1.103530743E1,6.438310683E0,2.683303635E0,1.305488311E1
5.068229250E0,-1.134670558E1,6.074881672E0,2.580758675E0,1.312677531E1
5.078180333E0,-1.129373214E1,5.833343718E0,3.741539741E0,1.325048694E1
5.088132333E0,-1.017104919E1,5.875086991E0,6.076527078E0,1.322463875E1
5.098083333E0,-7.894072083E0,6.216362071E0,8.342732449E0,1.305988959E1
5.108034333E0,-5.107187362E0,7.178770498E0,9.994631681E0,1.332331682E1
5.117985333E0,-2.932945830E0,8.732692616E0,1.033260776E1,1.384286368E1
5.127936333E0,-6.123829883E-1,1.148423326E1,9.429676044E0,1.487216920E1
5.137887333E0,3.705375881E0,1.569398762E1,8.664317615E0,1.830577662E1
5.147838333E0,1.107517375E1,2.025936263E1,9.097921400E0,2.481679716E1
5.157789333E0,1.940569721E1,2.348152227E1,9.997976289E0,3.206123051E1
5.167740333E0,2.518136165E1,2.417891500E1,1.031513160E1,3.640223682E1
5.177692333E0,2.630637296E1,2.200557511E1,8.799679488E0,3.540769624E1
5.187643333E0,2.349204726E1,1.783935794E1,5.933089031E0,3.008854469E1
5.197594333E0,1.935414231E1,1.307381170E1,3.749286132E0,2.365511622E1
5.207545333E0,1.599245290E1,8.550926655E0,3.246363605E0,1.842324002E1
5.217496333E0,1.383683709E1,4.485486835E0,4.321695800E0,1.517414602E1
5.227447333E0,1.257150664E1,6.747669321E-1,5.540035686E0,1.375463867E1
5.237398333E0,1.128077588E1,-2.717625622E0,5.572264370E0,1.287212196E1
5.247349333E0,9.631513742E0,-5.533994928E0,4.997524002E0,1.218057482E1
5.257301333E0,7.962637703E0,-7.802249748E0,4.446854281E0,1.200221702E1
5.267252333E0,6.677553020E0,-9.762182640E0,3.989526004E0,1.248223706E1
5.277203333E0,5.895192642E0,-1.151106496E1,3.580599808E0,1.341933708E1
5.287154333E0,5.156755963E0,-1.324031584E1,3.154117931E0,1.455494952E1
5.297105333E0,4.265885881E0,-1.494985926E1,2.669166237E0,1.577404586E1
5.307056333E0,3.112665265E0,-1.666696080E1,2.168253837E0,1.709320309E1
5.317007333E0,1.758831359E0,-1.799782801E1,1.834936817E0,1.817642138E1
5.326958333E0,3.542187694E-1,-1.871320210E1,1.648670693E0,1.878902656E1
5.336910333E0,-7.913174352E-1,-1.922383009E1,1.220794694E0,1.927880096E1
5.346861333E0,-1.397291875E0,-1.975200674E1,4.612307096E-1,1.980673948E1
5.356812333E0,-1.890854179E0,-2.025361832E1,-3.362252788E-1,2.034446932E1
5.366763333E0,-2.689577405E0,-2.066373267E1,-6.255398083E-1,2.084742129E1
5.376714333E0,-3.466312469E0,-2.092618378E1,-3.837996872E-1,2.121480124E1
5.386665333E0,-4.010964527E0,-2.097317668E1,-8.879362419E-2,2.135345079E1
5.396616333E0,-4.794542880E0,-2.103881051E1,-7.319179103E-2,2.157833511E1
5.406567333E0,-5.716989389E0,-2.100158011E1,-3.180418999E-1,2.176813004E1
5.416519333E0,-6.109922281E0,-2.076926322E1,-5.237584949E-1,2.165566365E1
5.426470333E0,-5.756355184E0,-2.045520693E1,-4.876626094E-1,2.125532710E1
5.436421333E0,-4.630360374E0,-1.989084069E1,2.194109201E-2,2.042268988E1
5.446372333E0,-2.893809831E0,-1.897990764E1,7.758753772E-1,1.921491639E1
5.456323333E0,-7.679107386E-1,-1.783061285E1,1.195471426E0,1.788713485E1
5.466274333E0,1.487460911E0,-1.641518554E1,1.088017290E0,1.651831220E1
5.476225333E0,3.572665721E0,-1.462888104E1,6.818391395E-1,1.507424975E1
5.486176333E0,5.660867229E0,-1.242121214E1,2.947699086E-1,1.365352768E1
5.496128333E0,7.951853684E0,-9.798500866E0,2.126307081E-1,1.262092738E1
5.506079333E0,1.111568559E1,-7.132497972E0,8.019210684E-1,1.323155588E1
5.516030333E0,1.454335498E1,-4.677248027E0,2.164291910E0,1.542951661E1
5.525981333E0,1.649117128E1,-1.430013186E0,4.222737522E0,1.708318413E1
5.535932333E0,1.858944929E1,2.848085481E0,6.736802856E0,1.997657950E1
5.545883333E0,2.154579217E1,6.763024694E0,8.565876231E0,2.415230628E1
5.555834333E0,2.351861934E1,1.058476426E1,8.957397605E0,2.730197176E1
5.565785333E0,2.405867286E1,1.371834092E1,7.874165822E0,2.879262240E1
5.575736333E0,2.247231857E1,1.536653185E1,5.088597894E0,2.769529259E1
5.585688333E0,1.908973940E1,1.658079740E1,2.262715898E0,2.538623399E1
5.595639333E0,1.570418049E1,1.736591825E1,4.005565647E-1,2.341702045E1
5.605590333E0,1.311775586E1,1.759479464E1,-1.167734574E0,2.197762319E1
5.615541333E0,1.109661081E1,1.774742451E1,-2.086738096E0,2.103474088E1
5.625492333E0,9.305022762E0,1.793753854E1,-1.981672840E0,2.030432872E1
5.635443333E0,7.656653493E0,1.774371153E1,-1.434406199E0,1.937836842E1
5.645394333E0,5.631347560E0,1.737852952E1,-7.782642572E-1,1.828472201E1
5.655345333E0,3.554978478E0,1.700606773E1,4.039326739E-1,1.737835934E1
5.665297333E0,1.664107050E0,1.644017420E1,1.520271392E0,1.659396894E1
5.675248333E0,-1.837376422E-1,1.589544174E1,2.002260886E0,1.602210587E1
5.685199333E0,-1.811304857E0,1.543358772E1,2.084002476E0,1.567863264E1
5.695150333E0,-3.220231229E0,1.467291525E1,1.952456496E0,1.514847905E1
5.705101333E0,-4.659025764E0,1.373826706E1,2.010193219E0,1.464538766E1
5.715052333E0,-5.986060712E0,1.291771911E1,2.804979515E0,1.451097170E1
5.725003333E0,-6.874874913E0,1.225692059E1,4.120869670E0,1.464505289E1
5.734954333E0,-7.181877708E0,1.159106773E1,5.096405096E0,1.455697646E1
5.744905333E0,-7.369994330E0,1.064200265E1,5.106607318E0,1.391569169E1
5.754857333E0,-8.215856055E0,9.528095793E0,4.130574878E0,1.324184840E1
5.764808333E0,-9.500575873E0,8.626373863E0,2.973744192E0,1.317263916E1
5.774759333E0,-1.009741989E1,7.998614452E0,2.431992645E0,1.310916892E1
5.784710333E0,-9.576244690E0,7.496469605E0,2.109323405E0,1.234304517E1
5.794661333E0,-8.025737346E0,7.054227144E0,1.889730052E0,1.085106724E1
5.804612333E0,-6.119998788E0,6.604859265E0,1.807014170E0,9.183890857E0
5.814563333E0,-4.832916110E0,6.162462437E0,1.600706860E0,7.993452562E0
5.824514333E0,-3.820605791E0,5.970237561E0,1.235450009E0,7.194935849E0
5.834466333E0,-2.585041176E0,6.016123002E0,1.539265487E0,6.726478432E0
5.844417333E0,-1.524532258E0,6.526926405E0,2.750398096E0,7.244974575E0
5.854368333E0,2.167568690E-1,7.503844113E0,4.380503587E0,8.691574753E0
5.864319333E0,4.000936260E0,8.414866624E0,6.187796084E0,1.118509238E1
5.874270333E0,9.952556287E0,9.238360995E0,7.716048340E0,1.561851762E1
5.884221333E0,1.682729262E1,1.026794691E1,8.124433669E0,2.132123198E1
5.894172333E0,2.392091713E1,1.137049322E1,6.985639889E0,2.739155996E1
5.904123333E0,2.980268515E1,1.153000760E1,4.085913845E0,3.221545917E1
5.914074333E0,3.285350266E1,1.049120530E1,-2.158091449E-1,3.448861551E1
5.924026333E0,3.312398551E1,8.111691417E0,-4.991544639E0,3.446612063E1
5.933977333E0,3.087781270E1,4.655863590E0,-9.609923483E0,3.267211367E1
5.943928333E0,2.714397257E1,2.157944173E-1,-1.257076287E1,2.991430917E1
5.953879333E0,2.288688850E1,-4.134484327E0,-1.288548925E1,2.658833314E1
5.963830333E0,1.898595951E1,-7.838151067E0,-1.075551348E1,2.318586511E1
5.973781333E0,1.570012018E1,-1.121262190E1,-7.516923165E0,2.070557407E1
5.983732333E0,1.279097018E1,-1.422154412E1,-4.513851678E0,1.965289017E1
5.993683333E0,9.852656608E0,-1.665945648E1,-1.864146729E0,1.944446902E1
6.003635333E0,6.905002107E0,-1.832741217E1,5.043708819E-1,1.959151553E1
6.013586333E0,4.477848325E0,-1.923505674E1,2.476069542E0,1.990400598E1
6.023537333E0,2.738950417E0,-1.987217404E1,3.507358169E0,2.036434904E1
6.033488333E0,1.595103765E0,-2.064394336E1,3.010070604E0,2.092312783E1
6.043439333E0,4.164480543E-1,-2.152274946E1,1.117851977E0,2.155578267E1
6.053390333E0,-1.168986609E0,-2.225877358E1,-1.037731090E0,2.231359265E1
6.063341333E0,-3.268521337E0,-2.269140673E1,-2.810302820E0,2.309720704E1
6.073292333E0,-5.324978603E0,-2.263653412E1,-3.987847853E0,2.359387642E1
6.083245125E0,-6.690573599E0,-2.233024527E1,-4.489210342E0,2.373934789E1
6.093196125E0,-6.848193483E0,-2.201952423E1,-4.194786662E0,2.343828996E1
6.103147125E0,-5.958313335E0,-2.186096411E1,-3.126828976E0,2.287313509E1
6.113098125E0,-4.784774814E0,-2.161835845E1,-1.856037226E0,2.221918915E1
6.123049125E0,-3.890792551E0,-2.117917175E1,-7.185607501E-1,2.154557755E1
6.133000125E0,-3.161671072E0,-2.064571155E1,3.742592239E-1,2.088974963E1
6.142951125E0,-2.375448023E0,-1.987228864E1,1.335101767E0,2.005824284E1
6.152902125E0,-1.447827021E0,-1.898595366E1,1.939641885E0,1.913961468E1
6.162854125E0,-5.029874307E-1,-1.841833754E1,1.888594522E0,1.852174245E1
6.172805125E0,1.801185080E-1,-1.817319653E1,9.421583498E-1,1.819849382E1
6.182756125E0,3.791410643E-1,-1.789510880E1,-4.603069957E-1,1.790504257E1
6.192707125E0,5.131335193E-1,-1.804154063E1,-1.759275162E0,1.813437463E1
6.202658125E0,7.298857105E-1,-1.858977674E1,-2.463232272E0,1.876646065E1
6.212609125E0,1.416216096E0,-1.784292474E1,-1.941960890E0,1.800407853E1
6.222560125E0,4.994295754E0,-1.538849165E1,5.859151281E-2,1.617875454E1
6.232511125E0,1.296591303E1,-1.211919293E1,2.758433340E0,1.796103261E1
6.242463125E0,2.322066394E1,-7.924044326E0,5.666071250E0,2.518122467E1
6.252414125E0,3.134568818E1,-2.558900614E0,7.929533107E0,3.243420471E1
6.262365125E0,3.403988869E1,3.489319509E0,8.853239983E0,3.534500291E1
6.272316125E0,3.258933949E1,9.430139143E0,8.167318318E0,3.489552495E1
6.282267125E0,2.955950647E1,1.378449983E1,6.267471414E0,3.321231784E1
6.292218125E0,2.661386868E1,1.633923489E1,3.894362569E0,3.147117193E1
6.302169125E0,2.456294609E1,1.771612553E1,2.262171961E0,3.036966985E1
6.312120125E0,2.230332001E1,1.806727188E1,1.490212026E0,2.874169669E1
6.322071125E0,1.858327112E1,1.779077226E1,6.312244713E-1,2.573417936E1
6.332023125E0,1.376432927E1,1.710499326E1,-5.722634876E-1,2.196281039E1
6.341974125E0,9.269921926E0,1.606457012E1,-1.754965764E0,1.863013071E1
6.351925125E0,5.492390234E0,1.468712515E1,-2.431170527E0,1.586784755E1
6.361876125E0,2.074872195E0,1.332909645E1,-2.116075770E0,1.365458471E1
6.371827125E0,-7.613057238E-1,1.213066283E1,-1.054065871E0,1.220014844E1
6.381778125E0,-2.871842426E0,1.111420859E1,1.995163719E-1,1.148098072E1
6.391729125E0,-4.495366291E0,1.047045821E1,1.138210813E0,1.145139018E1
6.401680125E0,-5.682621210E0,1.014226920E1,1.640614691E0,1.174092947E1
6.411632125E0,-6.228545330E0,1.028073594E1,1.721406839E0,1.214296298E1
6.421583125E0,-6.109349254E0,1.066650600E1,1.400364295E0,1.237172254E1
6.431534125E0,-5.788697303E0,1.113246593E1,7.715517998E-1,1.257124124E1
6.441485125E0,-5.603453418E0,1.148340529E1,1.112251331E-1,1.277809291E1
6.451436125E0,-6.045901701E0,1.145974746E1,-5.437992418E-1,1.296820947E1
6.461387125E0,-6.869252815E0,1.104383852E1,-1.162418286E0,1.305772644E1
6.471338125E0,-7.649551465E0,1.018800027E1,-1.515391890E0,1.282994153E1
6.481289125E0,-8.502122285E0,8.984170251E0,-1.606354685E0,1.247324231E1
6.491240125E0,-9.349895464E0,7.694562746E0,-1.480892149E0,1.219917549E1
6.501192125E0,-9.846228179E0,6.505223880E0,-1.189997263E0,1.186095445E1
6.511143125E0,-9.942175140E0,5.553358567E0,-8.213524624E-1,1.141758546E1
6.521094125E0,-9.415505902E0,4.864933709E0,-4.988645589E-1,1.060981608E1
6.531045125E0,-8.128081162E0,4.407107541E0,-2.454193354E-1,9.249244883E0
6.540996125E0,-6.585899668E0,4.082996085E0,-2.248945121E-1,7.752129321E0
6.550947125E0,-5.142184117E0,3.699636839E0,-4.984937724E-1,6.354358054E0
6.560898125E0,-3.972967858E0,3.214131706E0,-7.290273392E-1,5.162034201E0
6.570849125E0,-3.201090953E0,3.168807891E0,-3.206051731E-1,4.515652159E0
6.580801125E0,-2.331726930E0,3.880711074E0,1.150902048E0,4.671342895E0
6.590752125E0,-2.338921344E-1,5.204133613E0,3.620587161E0,6.344002174E0
6.600703125E0,3.719799793E0,7.084868892E0,6.460873334E0,1.028470524E1
6.610654125E0,1.007686575E1,8.873642088E0,8.530085424E0,1.590745437E1
6.620605125E0,1.734597456E1,9.277343797E0,9.362338339E0,2.178543827E1
6.630556125E0,2.202318224E1,8.402641851E0,8.393047155E0,2.502135462E1
6.640507125E0,2.299935853E1,7.202627723E0,5.509304475E0,2.472247509E1
6.650458125E0,2.198688273E1,6.275491455E0,2.348444997E0,2.298521262E1
6.660409125E0,2.138384768E1,4.736955700E0,-5.612333000E-2,2.190230218E1
6.670361125E0,2.140068533E1,2.566616600E0,-1.968314730E0,2.164373157E1
6.680312125E0,2.099251225E1,3.174962085E-1,-3.379764322E0,2.126521059E1
6.690263125E0,1.952620131E1,-1.678656676E0,-4.259865587E0,2.005584405E1
6.700214125E0,1.728472966E1,-3.721321823E0,-4.738752549E0,1.830480514E1
6.710165125E0,1.459998527E1,-5.781680059E0,-5.139809563E0,1.652286405E1
6.720116125E0,1.173948644E1,-7.590521484E0,-5.392026871E0,1.498350800E1
6.730067125E0,9.074917284E0,-9.172414927E0,-5.213860456E0,1.391659657E1
6.740018125E0,6.650120223E0,-1.062272555E1,-4.742241583E0,1.339982285E1
6.749970125E0,4.491972274E0,-1.198292591E1,-4.180189673E0,1.346262656E1
6.759921125E0,2.495853303E0,-1.315701056E1,-3.659193403E0,1.388257566E1
6.769872125E0,7.433001003E-1,-1.400020829E1,-3.352561905E0,1.441520026E1
6.779823125E0,-8.052551508E-1,-1.466522148E1,-3.373240584E0,1.506970169E1
6.789774125E0,-2.237387368E0,-1.523993262E1,-3.695904561E0,1.584049112E1
6.799725125E0,-3.563685859E0,-1.567857436E1,-4.248540700E0,1.663032318E1
6.809676125E0,-4.846316467E0,-1.595160893E1,-4.810904852E0,1.735181305E1
6.819627125E0,-5.831942725E0,-1.602220236E1,-5.186631142E0,1.782199953E1
6.829579125E0,-6.378483142E0,-1.605714181E1,-5.308830932E0,1.807485923E1
6.839530125E0,-6.222500478E0,-1.609509726E1,-5.222744130E0,1.802910769E1
6.849481125E0,-5.440274001E0,-1.594231887E1,-4.958941734E0,1.755976125E1
6.859432125E0,-4.423905422E0,-1.558081593E1,-4.612317621E0,1.684061276E1
6.869383125E0,-3.376494851E0,-1.513574693E1,-4.254353417E0,1.608076726E1
6.879334125E0,-2.459634773E0,-1.470786757E1,-3.895295784E0,1.541247874E1
6.889285125E0,-1.568219730E0,-1.423287836E1,-3.579430364E0,1.475962267E1
6.899236125E0,-7.553339624E-1,-1.375330376E1,-3.207136974E0,1.414247579E1
6.909187125E0,-2.056068134E-1,-1.342797638E1,-2.705552875E0,1.369937371E1
6.919139125E0,1.179593897E-1,-1.327032492E1,-2.080982535E0,1.343301627E1
6.929090125E0,1.551500201E-1,-1.334081311E1,-1.633733688E0,1.344137090E1
6.939041125E0,-4.441837370E-2,-1.352521324E1,-1.697373614E0,1.363137716E1
6.948992125E0,1.694581568E-2,-1.366247312E1,-2.066410689E0,1.381786930E1
6.958943125E0,6.127735823E-1,-1.332928590E1,-2.244071320E0,1.353075054E1
6.968894125E0,1.660784077E0,-1.191046955E1,-1.794685900E0,1.215888096E1
6.978845125E0,4.201329111E0,-8.907997988E0,-7.129825795E-1,9.874813346E0
6.988796125E0,9.471005334E0,-5.173949701E0,8.617269748E-1,1.082646161E1
6.998748125E0,1.650495901E1,-1.491373283E0,2.803167463E0,1.680760584E1
7.008699125E0,2.306453393E1,1.978042889E0,4.735519039E0,2.362859538E1
7.018650125E0,2.790215763E1,4.878777577E0,6.991219887E0,2.917550388E1
7.028601125E0,2.974245649E1,7.155659963E0,1.000892695E1,3.218688874E1
7.038552125E0,2.741112016E1,8.652702706E0,1.291002066E1,3.151043329E1
7.048503125E0,2.249786623E1,9.493112487E0,1.484866033E1,2.857894125E1
7.058454125E0,1.843637854E1,9.914456999E0,1.511072669E1,2.581725339E1
7.068405125E0,1.514014403E1,9.836172137E0,1.290736486E1,2.219401521E1
7.078356458E0,1.158965622E1,9.676479415E0,9.169043423E0,1.766425041E1
7.088307458E0,7.612902287E0,9.326453977E0,5.143204456E0,1.309166059E1
7.098258458E0,3.693394352E0,8.721551331E0,1.938592894E0,9.667717511E0
7.108209458E0,5.344056898E-1,8.143480974E0,9.955352426E-2,8.161604175E0
7.118160458E0,-1.790308675E0,7.608476529E0,-5.918668993E-1,7.838649544E0
7.128111458E0,-3.414671030E0,7.257865199E0,-4.760001185E-1,8.035120510E0
7.138062458E0,-4.294460639E0,7.020993909E0,2.552520132E-1,8.234190988E0
7.148013458E0,-4.958036585E0,6.964353100E0,1.217470990E0,8.635194062E0
7.157964458E0,-5.601066000E0,7.114998425E0,1.751165074E0,9.222891198E0
7.167916458E0,-6.116213300E0,7.204935619E0,1.791151843E0,9.619115725E0
7.177867458E0,-6.692341797E0,7.233546630E0,1.573213252E0,9.979310372E0
7.187818458E0,-7.289903848E0,7.171308281E0,1.166783159E0,1.029231478E1
7.197769458E0,-7.949323009E0,7.085562957E0,6.001224735E-1,1.066569668E1
7.207720458E0,-8.847819614E0,6.944105362E0,5.291203916E-2,1.124754688E1
7.217671458E0,-9.708315750E0,6.561825512E0,-3.685733914E-1,1.172368522E1
7.227622458E0,-1.039308434E1,6.068015286E0,-3.362488139E-1,1.203952138E1
7.237573458E0,-1.093507446E1,5.617708930E0,1.724729447E-1,1.229488731E1
7.247525458E0,-1.117357420E1,5.101819618E0,6.053587282E-1,1.229812112E1
7.257476458E0,-1.104878526E1,4.652901390E0,6.050727262E-1,1.200380190E1
7.267427458E0,-1.071651957E1,4.317568835E0,3.101953020E-1,1.155774258E1
7.277378458E0,-1.004617606E1,3.737592285E0,-1.767988244E-1,1.072037813E1
7.287329458E0,-9.334474602E0,3.176950724E0,-6.517663977E-1,9.881813166E0
7.297280458E0,-8.912279320E0,3.220912430E0,-6.823770833E-1,9.500980899E0
7.307231458E0,-8.187139794E0,4.098127217E0,3.272576234E-1,9.161386481E0
7.317182458E0,-6.254486502E0,5.923990763E0,2.252390739E0,8.904242360E0
7.327133458E0,-2.283216090E0,8.668189641E0,4.823226104E0,1.017910101E1
7.337085458E0,3.711693798E0,1.162424601E1,7.304182164E0,1.422149230E1
7.347036458E0,1.120366748E1,1.381264131E1,8.744611580E0,1.981866435E1
7.356987458E0,1.780909158E1,1.475522417E1,8.555859366E0,2.465934129E1
7.366938458E0,2.172775986E1,1.495136901E1,6.546869504E0,2.717536539E1
7.376889458E0,2.315679364E1,1.393462007E1,3.423529562E0,2.724208661E1
7.386840458E0,2.268139162E1,1.222148997E1,6.178178291E-1,2.577192351E1
7.396791458E0,2.230135067E1,1.000127412E1,-1.009174312E0,2.446209636E1
7.406742458E0,2.192515484E1,7.119607201E0,-2.035627438E0,2.314184523E1
7.416694458E0,2.072784856E1,3.998221398E0,-2.923028952E0,2.131134859E1
7.426645458E0,1.878282841E1,9.934080255E-1,-3.723087682E0,1.917401586E1
7.436596458E0,1.651552610E1,-1.789636245E0,-4.428213358E0,1.719227948E1
7.446547458E0,1.411474004E1,-4.307413976E0,-5.033591382E0,1.559220138E1
7.456498458E0,1.168661709E1,-6.458248519E0,-5.698732628E0,1.451762881E1
7.466449458E0,9.532294679E0,-8.323702101E0,-6.095846279E0,1.404663662E1
7.476400458E0,7.721659913E0,-1.000446670E1,-5.930963568E0,1.396029063E1
7.486351458E0,6.055626791E0,-1.154609680E1,-5.280139815E0,1.406637279E1
7.496302458E0,4.447884561E0,-1.281598574E1,-4.430684391E0,1.427109427E1
7.506254458E0,2.860832996E0,-1.398363728E1,-3.770291669E0,1.476284445E1
7.516205458E0,1.460656689E0,-1.506784204E1,-3.522356862E0,1.554285623E1
7.526156458E0,2.759546649E-1,-1.604817452E1,-3.615855010E0,1.645279502E1
7.536107458E0,-6.576892617E-1,-1.676439295E1,-3.869904251E0,1.721782754E1
7.546058458E0,-1.236682017E0,-1.725793070E1,-4.147446434E0,1.779232605E1
7.556009458E0,-1.489736355E0,-1.764973742E1,-4.320104188E0,1.823172634E1
7.565960458E0,-1.548192431E0,-1.786937170E1,-4.232663755E0,1.842896598E1
7.575912458E0,-1.441097168E0,-1.793323031E1,-3.886408017E0,1.840602287E1
7.585863458E0,-1.249471340E0,-1.782038373E1,-3.337051581E0,1.817314414E1
7.595814458E0,-8.619550163E-1,-1.755407697E1,-2.694331484E0,1.778055136E1
7.605765458E0,-1.699031299E-1,-1.726286341E1,-1.921750574E0,1.737033234E1
7.615716458E0,5.643586367E-1,-1.711328812E1,-1.117016995E0,1.715898768E1
7.625667458E0,1.023718237E0,-1.715449228E1,-4.802657354E-1,1.719172067E1
7.635618458E0,1.050454046E0,-1.724785945E1,-2.717247161E-1,1.728195428E1
7.645569458E0,6.458629757E-1,-1.728793861E1,-5.730154395E-1,1.730948604E1
7.655520458E0,2.909255835E-1,-1.740102844E1,-9.241430052E-1,1.742797948E1
7.665472458E0,2.745729679E-1,-1.764293009E1,-9.775748619E-1,1.767212565E1
7.675423458E0,3.681474218E-1,-1.776808857E1,-8.198801335E-1,1.779080401E1
7.685374458E0,1.368927909E0,-1.736927221E1,-3.920441882E-1,1.742754370E1
7.695325458E0,3.887875668E0,-1.632792637E1,7.718160939E-1,1.680215632E1
7.705276458E0,7.405250702E0,-1.461873027E1,2.627191415E0,1.659660048E1
7.715227458E0,1.177939837E1,-1.177361664E1,4.808704544E0,1.733481797E1
7.725178458E0,1.665064005E1,-8.185379198E0,6.882399695E0,1.978918069E1
7.735129458E0,2.084113018E1,-4.511093547E0,8.785494143E0,2.306268804E1
7.745081458E0,2.313444792E1,-7.061477691E-1,1.050223081E1,2.541649419E1
7.755032458E0,2.278623219E1,3.117410865E0,1.125956920E1,2.560680626E1
7.764983458E0,2.081296531E1,6.552823724E0,1.019681086E1,2.408514014E1
7.774934458E0,1.941007560E1,9.303953306E0,7.428335509E0,2.277047980E1
7.784885458E0,1.808674545E1,1.118610712E1,4.371333983E0,2.171100906E1
7.794836458E0,1.643555724E1,1.281356967E1,1.963035425E0,2.093247758E1
7.804787458E0,1.493586103E1,1.386227949E1,6.449853086E-1,2.038771060E1
7.814738458E0,1.280437551E1,1.438066089E1,7.028119326E-2,1.925513903E1
7.824690458E0,9.780121897E0,1.477316810E1,-3.492904437E-1,1.772058926E1
7.834641458E0,6.383988295E0,1.462504176E1,-8.792925223E-1,1.598187437E1
7.844592458E0,3.064666641E0,1.427355276E1,-1.005139879E0,1.463341369E1
7.854543458E0,3.092077804E-1,1.380392896E1,-1.716836071E-1,1.380845898E1
7.864494458E0,-1.886628689E0,1.318165657E1,1.486815963E0,1.339873350E1
7.874445458E0,-3.727725109E0,1.268155123E1,3.307902042E0,1.362570703E1
7.884396458E0,-5.520928155E0,1.269843799E1,5.027479287E0,1.473114127E1
7.894347458E0,-6.735076758E0,1.324036847E1,6.400543517E0,1.617515296E1
7.904298458E0,-7.062246015E0,1.394497549E1,6.843190606E0,1.706361386E1
7.914250458E0,-6.556622660E0,1.453437015E1,6.032427378E0,1.704779741E1
7.924201458E0,-6.283311521E0,1.467337367E1,4.353434486E0,1.654509868E1
7.934152458E0,-6.895958219E0,1.430489968E1,2.528461179E0,1.608034548E1
7.944103458E0,-7.579362073E0,1.319170209E1,8.577081835E-1,1.523822158E1
7.954054458E0,-8.462478163E0,1.163356179E1,-3.795158708E-1,1.439087658E1
7.964005458E0,-9.207354965E0,1.029145272E1,-7.678177679E-1,1.383036256E1
7.973956458E0,-8.801423128E0,9.303179719E0,-2.883747357E-1,1.281004926E1
7.983907458E0,-6.880491164E0,8.565035986E0,3.760011095E-1,1.099283298E1
7.993859458E0,-4.595423845E0,7.768793149E0,2.944113829E-1,9.030988062E0
8.003810458E0,-3.146245240E0,7.122392814E0,3.778020519E-1,7.795516205E0
8.013761458E0,-2.073023306E0,7.213754389E0,1.719946205E0,7.700252786E0
8.023712458E0,6.598875225E-2,7.690518227E0,3.505327431E0,8.451966961E0
8.033663458E0,3.860434100E0,7.941477215E0,4.768783264E0,1.003550226E1
8.043614458E0,8.153494331E0,7.750047560E0,5.013115602E0,1.231560129E1
8.053565458E0,1.147358080E1,6.746349020E0,3.931266101E0,1.387844136E1
8.063516458E0,1.260427911E1,5.416782228E0,1.946776657E0,1.385638196E1
8.073467458E0,1.270114993E1,4.635356235E0,1.828026358E-1,1.352180291E1
8.083420250E0,1.363809958E1,3.763419437E0,-1.124694389E0,1.419246362E1
8.093371250E0,1.481339227E1,2.634909739E0,-2.360049673E0,1.522987768E1
8.103322250E0,1.501897218E1,1.337994384E0,-3.357098175E0,1.544764910E1
8.113273250E0,1.417756838E1,-8.398127800E-1,-3.957393799E0,1.474346283E1
8.123224250E0,1.235912992E1,-3.297951835E0,-4.199314746E0,1.346323969E1
8.133175250E0,1.016171002E1,-5.149215978E0,-4.208956804E0,1.214454994E1
8.143126250E0,8.490057725E0,-6.125263036E0,-3.899393513E0,1.117162464E1
8.153078250E0,7.878618477E0,-6.362836577E0,-3.199890520E0,1.062062229E1
8.163029250E0,8.001961398E0,-6.890955341E0,-2.808169171E0,1.092714353E1
8.172980250E0,7.454478995E0,-7.630850900E0,-3.115013507E0,1.111316569E1
8.182931250E0,6.391053486E0,-8.582781116E0,-3.376255993E0,1.122090909E1
8.192882250E0,5.143565229E0,-9.697439345E0,-3.467254456E0,1.151166567E1
8.202833250E0,3.847168230E0,-1.050513922E1,-3.767097335E0,1.180464636E1
8.212784250E0,2.540765767E0,-1.157907743E1,-4.179851704E0,1.256987212E1
8.222735250E0,1.170340678E0,-1.270323154E1,-4.583878518E0,1.355557934E1
8.232686250E0,-1.140560809E-1,-1.347503009E1,-5.125740577E0,1.441744295E1
8.242638250E0,-7.424809054E-1,-1.411185035E1,-5.752978417E0,1.525753449E1
8.252589250E0,-5.269925898E-1,-1.477829728E1,-6.179877784E0,1.602706090E1
8.262540250E0,-1.637565368E-1,-1.549795621E1,-6.324267758E0,1.673946909E1
8.272491250E0,1.228441536E-1,-1.600055714E1,-6.170252098E0,1.714948776E1
8.282442250E0,6.170093054E-1,-1.629041180E1,-5.860502865E0,1.732350170E1
8.292393250E0,1.647721690E0,-1.657090976E1,-5.443926172E0,1.751988496E1
8.302344250E0,2.608124814E0,-1.649184605E1,-4.880171553E0,1.739538374E1
8.312295250E0,3.607500215E0,-1.601020271E1,-4.060151013E0,1.690637379E1
8.322247250E0,5.099945585E0,-1.570857292E1,-2.829591615E0,1.675635094E1
8.332198250E0,7.175718251E0,-1.539294723E1,-1.426646944E0,1.704315342E1
8.342149250E0,9.059587639E0,-1.485769194E1,-2.680036211E-1,1.740399276E1
8.352100250E0,1.081099888E1,-1.397993483E1,1.751954448E-1,1.767334060E1
8.362051250E0,1.226950964E1,-1.278876812E1,4.448218144E-2,1.772273781E1
8.372002250E0,1.346104355E1,-1.138156668E1,1.316230170E-2,1.762781685E1
8.381953250E0,1.487359052E1,-9.372862158E0,7.711286075E-1,1.759741116E1
8.391904250E0,1.640871033E1,-7.209725658E0,2.203748921E0,1.805775258E1
8.401856250E0,1.730508265E1,-5.275802935E0,3.948922938E0,1.851739653E1
8.411807250E0,1.697568794E1,-3.248129464E0,6.192031807E0,1.835934595E1
8.421758250E0,1.630794176E1,-1.374462299E0,8.581481280E0,1.847917563E1
8.431709250E0,1.581966768E1,1.034694046E-1,1.075937031E1,1.913208406E1
8.441660250E0,1.478264644E1,1.753068635E0,1.214655088E1,1.921297956E1
8.451611250E0,1.334262106E1,4.299509125E0,1.259656897E1,1.884634886E1
8.461562250E0,1.197292132E1,6.857054354E0,1.227831555E1,1.846962566E1
8.471513250E0,1.012527251E1,9.076164495E0,1.132818861E1,1.769818529E1
8.481465250E0,8.568550748E0,1.149523772E1,1.120168293E1,1.819445665E1
8.491416250E0,7.497807448E0,1.401347796E1,1.211331882E1,1.998317227E1
8.501367250E0,6.950295224E0,1.599716575E1,1.288096702E1,2.168260195E1
8.511318250E0,5.039592379E0,1.728199433E1,1.264147559E1,2.199708445E1
8.521269250E0,2.062208880E0,1.848601672E1,1.148601081E1,2.186124343E1
8.531220250E0,-2.051507306E-1,2.004997383E1,1.026474030E1,2.252572820E1
8.541171250E0,-8.878178358E-2,2.172133026E1,8.948238527E0,2.349244651E1
8.551122250E0,8.119700933E-1,2.225660543E1,7.206364678E0,2.340827787E1
8.561074250E0,-4.976214409E-1,2.192091678E1,5.124385192E0,2.251740534E1
8.571025250E0,-2.919301937E0,2.092529266E1,2.744221097E0,2.130542058E1
8.580976250E0,-4.747108805E0,1.950098928E1,4.467565119E-1,2.007543814E1
8.590927250E0,-5.603197310E0,1.775884529E1,-8.509688289E-1,1.864125946E1
8.600878250E0,-5.833776412E0,1.610853884E1,-6.893726921E-1,1.714623007E1
8.610829250E0,-5.653697957E0,1.443501193E1,3.524258669E-1,1.550671061E1
8.620780250E0,-5.751604906E0,1.283648608E1,1.070823991E0,1.410684223E1
8.630731250E0,-5.476868216E0,1.184669163E1,1.500402553E0,1.313740446E1
8.640682250E0,-4.432112281E0,1.117336370E1,1.539322790E0,1.211846485E1
8.650634250E0,-3.136234807E0,1.074062764E1,9.882145286E-1,1.123270310E1
8.660585250E0,-1.998485924E0,1.062499193E1,-1.021912032E-1,1.081179183E1
8.670536250E0,-6.369588357E-1,1.054312975E1,-1.013945786E0,1.061090889E1
8.680487250E0,6.486784101E-1,1.035203104E1,-1.432157360E0,1.047074043E1
8.690438250E0,2.025087247E0,1.044323474E1,-1.255189624E0,1.071156530E1
8.700389250E0,4.264074998E0,1.030587663E1,-1.091656524E0,1.120647771E1
8.710340250E0,6.677339011E0,9.544765620E0,-1.394950942E0,1.173180699E1
8.720291250E0,8.064207348E0,8.081782324E0,-1.813380618E0,1.156006033E1
8.730243250E0,8.765313647E0,6.430601129E0,-2.131665762E0,1.107823782E1
8.740194250E0,9.598289278E0,4.449270351E0,-2.521920483E0,1.087581016E1
8.750145250E0,9.943838089E0,2.126660984E0,-2.931440756E0,1.058281379E1
8.760096250E0,9.539908923E0,3.564708245E-1,-2.540239225E0,9.878752402E0
8.770047250E0,9.401891245E0,-1.126431597E0,-1.302575460E0,9.558300578E0
8.779998250E0,9.951783285E0,-2.664133539E0,-3.458668989E-1,1.030801736E1
8.789949250E0,1.064423863E1,-4.186567816E0,-3.758777332E-1,1.144414480E1
8.799900250E0,1.129567809E1,-6.003496524E0,-1.148374443E0,1.284340601E1
8.809852250E0,1.134487189E1,-7.613272415E0,-2.228678964E0,1.384323102E1
8.819803250E0,1.084502500E1,-8.519557512E0,-3.257680306E0,1.417074128E1
8.829754250E0,9.774796253E0,-9.176285200E0,-4.161584417E0,1.403814933E1
8.839705250E0,8.504710262E0,-9.653343737E0,-4.757640810E0,1.371686145E1
8.849656250E0,7.457235957E0,-1.005564738E1,-4.854998705E0,1.342748765E1
8.859607250E0,6.613537703E0,-1.052040630E1,-4.594112899E0,1.324853588E1
8.869558250E0,6.216061524E0,-1.073322390E1,-4.040764570E0,1.304489534E1
8.879509250E0,5.988348727E0,-1.092905767E1,-3.231742058E0,1.287434576E1
8.889461250E0,5.204327155E0,-1.131915700E1,-2.538958100E0,1.271434798E1
8.899412250E0,4.037435457E0,-1.142135230E1,-1.781896870E0,1.224431827E1
8.909363250E0,2.874600265E0,-1.135908179E1,-9.746581976E-1,1.175763686E1
8.919314250E0,2.030680401E0,-1.132827866E1,-4.326232070E-1,1.151697543E1
8.929265250E0,1.647015931E0,-1.120172971E1,-2.521797399E-1,1.132497261E1
8.939216250E0,1.607843387E0,-1.093546622E1,-4.820514750E-1,1.106354172E1
8.949167250E0,1.601473430E0,-1.063121571E1,-9.019768685E-1,1.078893076E1
8.959118250E0,1.114962576E0,-1.041040848E1,-1.295620782E0,1.054980471E1
8.969070250E0,7.450492948E-2,-1.040617977E1,-1.556177974E0,1.052215844E1
8.979021250E0,-1.073950205E0,-1.054183985E1,-1.699116230E0,1.073176371E1
8.988972250E0,-1.836130965E0,-1.063861829E1,-1.499034305E0,1.089948071E1
8.998923250E0,-1.651357781E0,-1.052008353E1,-9.423138857E-1,1.069051427E1
9.008874250E0,-2.276660192E-1,-1.007260313E1,-8.427767336E-2,1.007552820E1
9.018825250E0,1.760807133E0,-9.574609224E0,6.909673740E-1,9.759662877E0
9.028776250E0,3.515110407E0,-9.027395793E0,1.016958125E0,9.740845950E0
9.038727250E0,4.977017232E0,-8.529034680E0,1.302958453E0,9.960563931E0
9.048679250E0,6.105219365E0,-8.125003188E0,1.466819070E0,1.026844382E1
9.058630250E0,6.385223227E0,-7.884120707E0,1.426827039E0,1.024530480E1
9.068581250E0,5.605168406E0,-7.869034306E0,1.149008208E0,9.729328529E0
9.078532125E0,4.231248145E0,-7.834471414E0,6.308261298E-1,8.926384756E0
9.088483125E0,3.359230655E0,-7.824359824E0,6.237639358E-1,8.537805262E0
9.098434125E0,4.212562197E0,-7.463602991E0,1.772639558E0,8.751759873E0
9.108385125E0,5.480697557E0,-6.806105225E0,3.108798501E0,9.275006317E0
9.118336125E0,6.054630425E0,-5.789480245E0,4.093088379E0,9.323626096E0
9.128288125E0,6.000965849E0,-4.213555055E0,4.806534058E0,8.767462972E0
9.138239125E0,5.889947104E0,-2.075341434E0,5.261656766E0,8.165999687E0
9.148190125E0,6.618821247E0,-4.051214129E-2,5.458236648E0,8.579206445E0
9.158141125E0,7.745120112E0,1.713302014E0,5.760487411E0,9.803341499E0
9.168092125E0,9.237751715E0,3.406775535E0,6.806771808E0,1.196972509E1
9.178043125E0,1.043328044E1,4.689263178E0,8.384937651E0,1.418272574E1
9.187994125E0,1.014806496E1,6.287390538E0,9.449125053E0,1.522499479E1
9.197945125E0,8.363116427E0,8.782786882E0,9.511382697E0,1.541250994E1
9.207896125E0,7.412074987E0,1.131259175E1,8.271401095E0,1.585338020E1
9.217848125E0,9.246160011E0,1.322888921E1,6.194999853E0,1.728794400E1
9.227799125E0,1.124069439E1,1.470918670E1,4.205316328E0,1.898415310E1
9.237750125E0,1.190501527E1,1.549546413E1,2.516400712E0,1.970205750E1
9.247701125E0,1.108298095E1,1.550551900E1,1.278641052E0,1.910205510E1
9.257652125E0,8.870489269E0,1.499403030E1,6.414477432E-1,1.743324352E1
9.267603125E0,5.956162729E0,1.457210457E1,5.142591083E-1,1.575076406E1
9.277554125E0,4.207759879E0,1.475415062E1,1.304505626E0,1.539779005E1
9.287505125E0,3.997291691E0,1.495403418E1,2.353544061E0,1.565696805E1
9.297457125E0,4.106747475E0,1.494901960E1,2.238432266E0,1.566362477E1
9.307408125E0,3.501588137E0,1.471675183E1,1.494935406E0,1.520127415E1
9.317359125E0,2.196051062E0,1.450596321E1,8.658831026E-1,1.469678068E1
9.327310125E0,1.011953639E0,1.408040753E1,6.552210789E-2,1.411687712E1
9.337261125E0,5.481998563E-2,1.343654138E1,-9.473565976E-1,1.347000869E1
9.347212125E0,-1.248846565E0,1.282908584E1,-1.722267550E0,1.300427879E1
9.357163125E0,-2.769254197E0,1.237776499E1,-2.327487114E0,1.289554308E1
9.367114125E0,-3.936376567E0,1.216604199E1,-2.853014392E0,1.310142471E1
9.377066125E0,-4.287869657E0,1.228424696E1,-3.347088912E0,1.343471451E1
9.387017125E0,-4.132850030E0,1.245361390E1,-4.347334671E0,1.382288926E1
9.396968125E0,-3.957204934E0,1.217487012E1,-5.798836375E0,1.405394737E1
9.406919125E0,-4.125211228E0,1.152895159E1,-6.872696241E0,1.404165397E1
9.416870125E0,-4.807825123E0,1.059272232E1,-7.101229402E0,1.362895475E1
9.426821125E0,-5.722562370E0,9.314658388E0,-6.747269372E0,1.284664256E1
9.436772125E0,-6.503611802E0,8.302320002E0,-6.033536010E0,1.215026916E1
9.446723125E0,-6.520421963E0,7.598386574E0,-5.211457250E0,1.128763340E1
9.456675125E0,-5.794662048E0,6.890592229E0,-4.813317997E0,1.020913315E1
9.466626125E0,-4.746899475E0,6.184554972E0,-4.947570069E0,9.233646323E0
9.476577125E0,-3.531725855E0,5.724474410E0,-5.359367248E0,8.600320464E0
9.486528125E0,-2.164366754E0,5.927271636E0,-5.522401654E0,8.385341527E0
9.496479125E0,-3.002276266E-1,6.098684517E0,-5.307190204E0,8.090139512E0
9.506430125E0,1.967896215E0,6.239599491E0,-4.417813500E0,7.894447000E0
9.516381125E0,4.408211787E0,6.367245963E0,-2.121956899E0,8.029748028E0
9.526332125E0,7.296855603E0,6.893818138E0,9.957100743E-1,1.008762949E1
9.536284125E0,1.123407066E1,7.531339476E0,3.938872451E0,1.408687808E1
9.546235125E0,1.547506787E1,7.657562735E0,6.324494630E0,1.838790975E1
9.556186125E0,1.876965112E1,7.063309039E0,8.011404651E0,2.159566490E1
9.566137125E0,2.063571281E1,5.961277873E0,9.162181715E0,2.335198174E1
9.576088125E0,2.166201844E1,4.447798022E0,9.702118286E0,2.414864488E1
9.586039125E0,2.275781239E1,2.084227155E0,9.106325603E0,2.460055271E1
9.595990125E0,2.288010807E1,-6.512453377E-1,7.066463027E0,2.395534106E1
9.605941125E0,2.144903712E1,-2.927545341E0,4.355123747E0,2.208163984E1
9.615892125E0,1.935762842E1,-5.053412858E0,1.747637303E0,2.008255451E1
9.625844125E0,1.680495743E1,-7.149734979E0,-4.189448154E-1,1.826747982E1
9.635795125E0,1.403662826E1,-8.861597409E0,-2.165848439E0,1.674054184E1
9.645746125E0,1.127719037E1,-1.028912319E1,-3.334660070E0,1.562565315E1
9.655697125E0,8.601565297E0,-1.180802399E1,-3.379012370E0,1.499446834E1
9.665648125E0,5.957380704E0,-1.327845840E1,-2.561190383E0,1.477726424E1
9.675599125E0,3.351790658E0,-1.448962726E1,-1.351305571E0,1.493351350E1
9.685550125E0,1.008124005E0,-1.535547594E1,-3.151660931E-1,1.539176029E1
9.695501125E0,-8.434570572E-1,-1.595854022E1,3.390215635E-2,1.598085026E1
9.705453125E0,-2.070352590E0,-1.635522702E1,-4.010851165E-1,1.649062400E1
9.715404125E0,-2.923389140E0,-1.662862528E1,-1.379865711E0,1.693993543E1
9.725355125E0,-3.697981492E0,-1.668797218E1,-2.545670704E0,1.728131714E1
9.735306125E0,-4.334004773E0,-1.657141613E1,-3.778492974E0,1.754059403E1
9.745257125E0,-4.691257078E0,-1.648678119E1,-4.842996710E0,1.781225601E1
9.755208125E0,-4.547531641E0,-1.638467711E1,-5.516105956E0,1.787638422E1
9.765159125E0,-3.932296673E0,-1.634558028E1,-5.798965598E0,1.778395215E1
9.775110125E0,-3.155394378E0,-1.634063003E1,-5.648726070E0,1.757500526E1
9.785062125E0,-2.438380436E0,-1.639369351E1,-5.204488539E0,1.737197706E1
9.795013125E0,-2.123715157E0,-1.667616081E1,-4.592820080E0,1.742694757E1
9.804964125E0,-2.411061660E0,-1.691895825E1,-3.865134677E0,1.752151913E1
9.814915125E0,-2.922439845E0,-1.690743807E1,-3.131025522E0,1.744148610E1
9.824866125E0,-2.862065297E0,-1.692365941E1,-2.583824955E0,1.735735628E1
9.834817125E0,-1.980061932E0,-1.708730310E1,-2.589124871E0,1.739540572E1
9.844768125E0,-3.403599912E-1,-1.714607346E1,-3.125335597E0,1.743190760E1
9.854719125E0,2.010672691E0,-1.703981669E1,-3.732130401E0,1.755924129E1
9.864671125E0,4.197541285E0,-1.686055158E1,-4.090022099E0,1.785009337E1
9.874622125E0,5.472041924E0,-1.643992394E1,-4.096733533E0,1.780442551E1
9.884573125E0,6.497959299E0,-1.510428189E1,-3.633535820E0,1.683939990E1
9.894524125E0,8.802628824E0,-1.265243561E1,-2.621471668E0,1.563465749E1
9.904475125E0,1.278425524E1,-9.615067279E0,-1.179087528E0,1.603985499E1
9.914426125E0,1.858087376E1,-5.737620120E0,9.423641717E-1,1.946939148E1
9.924377125E0,2.490727926E1,-1.660345536E0,3.880724523E0,2.526240944E1
9.934329125E0,2.944557464E1,2.135798428E0,6.854682723E0,3.030825261E1
9.944280125E0,3.046094364E1,5.497908837E0,9.194710361E0,3.228991774E1
9.954231125E0,2.800599951E1,8.147138407E0,1.014959576E1,3.088245726E1
9.964182125E0,2.331779555E1,9.967004757E0,9.189860095E0,2.697247304E1
9.974133125E0,1.897924691E1,1.146000473E1,7.581573490E0,2.343125644E1
9.984084125E0,1.627506169E1,1.247551874E1,7.135887603E0,2.171260217E1
9.994035125E0,1.483176071E1,1.304418386E1,7.538107628E0,2.114130849E1
1.000398612E1,1.308469103E1,1.345544543E1,7.237583547E0,2.011568459E1
1.001393713E1,1.031578415E1,1.379539787E1,5.819150771E0,1.818215941E1
1.002388913E1,7.489141874E0,1.401054617E1,4.036668595E0,1.639138015E1
1.003384013E1,4.932836255E0,1.405417575E1,2.400883119E0,1.508698013E1
1.004379113E1,2.581537524E0,1.403344620E1,1.154839709E0,1.431557205E1
1.005374213E1,6.724812555E-1,1.386173453E1,4.424769348E-1,1.388508916E1
1.006369313E1,-9.843360704E-1,1.350443106E1,2.112926277E-1,1.354190608E1
1.007364413E1,-2.516049294E0,1.316580594E1,3.624332303E-1,1.340896372E1
1.008359458E1,-3.913968868E0,1.286841187E1,5.443862657E-1,1.346148331E1
1.009354558E1,-5.045729032E0,1.264381564E1,4.417851726E-1,1.362059579E1
1.010349758E1,-5.982116180E0,1.249326855E1,3.133402269E-2,1.385165892E1
1.011344858E1,-6.964845436E0,1.225872153E1,-5.557328608E-1,1.411007316E1
1.012339958E1,-7.981764531E0,1.194296487E1,-1.197010998E0,1.441443062E1
1.013335058E1,-8.704816600E0,1.140408664E1,-1.836605759E0,1.446375279E1
1.014330158E1,-9.197642155E0,1.063136540E1,-2.358363921E0,1.425427767E1
1.015325258E1,-9.872196833E0,9.747595591E0,-2.745066605E0,1.414253445E1
1.016320358E1,-1.083500521E1,8.855799894E0,-2.910942172E0,1.429321916E1
1.017315458E1,-1.157538199E1,8.158470896E0,-2.622880847E0,1.440241714E1
1.018310658E1,-1.157403480E1,7.692889858E0,-2.017294663E0,1.404308775E1
1.019305758E1,-1.111512309E1,7.393570304E0,-1.595789936E0,1.344460445E1
1.020300858E1,-1.027634118E1,7.108061873E0,-1.521532636E0,1.258740613E1
1.021295958E1,-9.302920103E0,6.669407263E0,-1.788934579E0,1.158557735E1
1.022291058E1,-8.568553087E0,6.421063735E0,-2.075858036E0,1.090684868E1
1.023286158E1,-7.695819898E0,6.289270418E0,-1.834645772E0,1.010675474E1
1.024281258E1,-6.602230357E0,6.143257257E0,-8.388462353E-1,9.057191531E0
1.025276358E1,-5.638336152E0,6.530613660E0,1.013845725E0,8.687210858E0
1.026271458E1,-4.239120251E0,7.988530344E0,3.534424930E0,9.709733114E0
1.027266658E1,-9.791782415E-1,1.030217534E1,6.415614130E0,1.217594807E1
1.028261758E1,4.565976682E0,1.255761950E1,9.193291826E0,1.621908028E1
1.029256858E1,1.145831255E1,1.390728200E1,1.139624202E1,2.132087595E1
1.030251958E1,1.769272965E1,1.426403583E1,1.300903273E1,2.618645324E1
1.031247058E1,2.112122818E1,1.342418504E1,1.296138611E1,2.818355112E1
1.032242158E1,2.235728981E1,1.216602562E1,1.120981290E1,2.781223638E1
1.033237258E1,2.331029474E1,1.077379539E1,8.981152503E0,2.720488207E1
1.034232358E1,2.469264201E1,8.866826574E0,6.609379163E0,2.705607281E1
1.035227558E1,2.596655617E1,6.197908843E0,3.614733514E0,2.693960675E1
1.036222658E1,2.634260465E1,2.790070869E0,5.480477921E-1,2.649561608E1
1.037217758E1,2.484721199E1,-6.681110466E-1,-1.790329140E0,2.492058576E1
1.038212858E1,2.191997655E1,-3.654055454E0,-2.814061410E0,2.239992042E1
1.039207958E1,1.894959568E1,-6.276140496E0,-2.533520190E0,2.012202376E1
1.040203058E1,1.624779145E1,-8.754883384E0,-1.721082319E0,1.853647308E1
1.041198158E1,1.358993256E1,-1.112349981E1,-7.750589597E-1,1.757894284E1
1.042193258E1,1.083260785E1,-1.344382935E1,2.423565638E-1,1.726675063E1
1.043188458E1,8.185040644E0,-1.543535826E1,1.102104256E0,1.750599351E1
1.044183558E1,5.880350069E0,-1.695656520E1,1.343911182E0,1.799749198E1
1.045178658E1,3.772989282E0,-1.819564049E1,8.320506012E-1,1.860131955E1
1.046173758E1,1.921174039E0,-1.914045815E1,-2.873485494E-1,1.923877899E1
1.047168858E1,-1.719876623E-1,-1.979041827E1,-1.778959229E0,1.987095697E1
1.048163958E1,-2.657485547E0,-2.012693021E1,-3.293096892E0,2.056696468E1
1.049159058E1,-5.037655782E0,-1.996192178E1,-4.375329970E0,2.104756065E1
1.050154258E1,-6.746365392E0,-1.952222754E1,-4.829926429E0,2.121223711E1
1.051149358E1,-7.424476932E0,-1.915743963E1,-4.450816355E0,2.102237183E1
1.052144458E1,-7.032287221E0,-1.875506817E1,-3.471075611E0,2.032865001E1
1.053139558E1,-6.128255056E0,-1.828950818E1,-2.438452503E0,1.944241935E1
1.054134658E1,-5.383030930E0,-1.777244942E1,-1.704521835E0,1.864785176E1
1.055129758E1,-4.735553538E0,-1.701012336E1,-1.092822313E0,1.769078926E1
1.056124858E1,-4.036363370E0,-1.619723876E1,-6.337703490E-1,1.670462324E1
1.057119958E1,-3.447261071E0,-1.554164894E1,-4.780788036E-1,1.592655079E1
1.058115158E1,-2.890361143E0,-1.481608199E1,-4.814420490E-1,1.510305464E1
1.059110258E1,-2.264683925E0,-1.412754545E1,-3.657548873E-1,1.431258573E1
1.060105358E1,-1.448887998E0,-1.361141523E1,-8.364193484E-2,1.368856811E1
1.061100458E1,-8.515633446E-1,-1.313801412E1,-5.695984729E-2,1.316570620E1
1.062095558E1,-5.029646266E-1,-1.262753466E1,-4.493094063E-1,1.264553217E1
1.063090658E1,-1.695674998E-1,-1.197658519E1,-9.024614565E-1,1.201173520E1
1.064085758E1,3.810531038E-1,-1.100365528E1,-1.354675760E0,1.109327623E1
1.065080858E1,1.036545274E0,-9.593767626E0,-1.849235744E0,9.825195988E0
1.066076058E1,2.661534451E0,-7.575184237E0,-1.723237603E0,8.211986952E0
1.067071158E1,6.023551304E0,-5.003223867E0,-5.618824871E-1,7.850549746E0
1.068066258E1,1.024148358E1,-2.274039470E0,1.216789351E0,1.056124130E1
1.069061358E1,1.386144334E1,9.432880318E-1,3.087003590E0,1.423232219E1
1.070056458E1,1.651434262E1,5.132502882E0,4.625458653E0,1.790142357E1
1.071051558E1,1.891016673E1,9.222056619E0,5.783670452E0,2.181952286E1
1.072046658E1,2.049692798E1,1.261569755E1,6.030165675E0,2.481214984E1
1.073041758E1,2.130241000E1,1.543552432E1,5.382511697E0,2.685180655E1
1.074036958E1,2.135421166E1,1.720391295E1,4.145895753E0,2.773383183E1
1.075032058E1,2.002755561E1,1.803945200E1,2.413641890E0,2.706197479E1
1.076027158E1,1.649013164E1,1.812449624E1,4.339159533E-1,2.450734765E1
1.077022258E1,1.222483458E1,1.768735606E1,-1.889208480E0,2.158374976E1
1.078017358E1,8.333238325E0,1.685915059E1,-4.993674195E0,1.945791874E1
1.079012458E1,4.669041460E0,1.587579276E1,-8.020897021E0,1.838954956E1
1.080007558E1,1.153654479E0,1.483785936E1,-9.712646198E0,1.777156395E1
1.081002658E1,-1.827746058E0,1.375743190E1,-9.642846816E0,1.689946990E1
1.081997858E1,-3.786544590E0,1.255170796E1,-7.845031486E0,1.527834454E1
1.082992958E1,-4.661086323E0,1.162650303E1,-4.855254228E0,1.343409067E1
1.083988058E1,-4.632497531E0,1.092458689E1,-2.154380879E0,1.206018197E1
1.084983158E1,-4.653968507E0,1.028416943E1,-4.456794548E-1,1.129699933E1
1.085978258E1,-5.145269108E0,9.977707500E0,5.467709430E-1,1.123954624E1
1.086973358E1,-5.532531370E0,9.878566790E0,1.072440235E0,1.137299931E1
1.087968458E1,-5.881503140E0,9.892905332E0,1.306826971E0,1.158315379E1
1.088963558E1,-6.079692176E0,9.907568979E0,1.560965820E0,1.172856318E1
1.089958658E1,-6.127191448E0,9.727557768E0,1.882940265E0,1.164960597E1
1.090953858E1,-5.747718261E0,9.379078333E0,2.434368954E0,1.126630054E1
1.091948958E1,-4.838248186E0,8.837516820E0,3.287865973E0,1.059813246E1
1.092944058E1,-3.900067112E0,8.246832265E0,4.167529281E0,1.002941006E1
1.093939158E1,-2.801163622E0,7.421940994E0,4.851191583E0,9.298698056E0
1.094934258E1,-1.665434952E0,6.572159296E0,5.163759173E0,8.522403428E0
1.095929358E1,-7.740661025E-1,5.765709559E0,4.988111154E0,7.663148043E0
1.096924458E1,7.956318033E-1,5.158760973E0,4.626003613E0,6.974650828E0
1.097919558E1,3.547878789E0,5.065409006E0,4.697744272E0,7.766248357E0
1.098914758E1,6.668878090E0,5.016678311E0,5.366211998E0,9.921553682E0
1.099909858E1,9.255663491E0,4.748242580E0,5.738196656E0,1.188023632E1
1.100904958E1,1.154374622E1,4.399650294E0,5.279832251E0,1.343471727E1
1.101900058E1,1.317565031E1,3.519298183E0,4.049183975E0,1.422600126E1
1.102895158E1,1.272107257E1,2.651747966E0,3.004622169E0,1.333736139E1
1.103890258E1,1.072945010E1,2.396187805E0,3.141784984E0,1.143388072E1
1.104885358E1,9.162747141E0,2.479870232E0,4.048378229E0,1.031964427E1
1.105880458E1,9.399342443E0,2.956263356E0,5.109711020E0,1.109938188E1
1.106875658E1,1.154987761E1,3.129937356E0,5.784829370E0,1.329136680E1
1.107870783E1,1.327093771E1,2.712669522E0,5.498087761E0,1.461866385E1
1.108865883E1,1.313543199E1,1.934789865E0,4.640991197E0,1.406491325E1
1.109860983E1,1.186531384E1,1.043702851E0,3.838604690E0,1.251438669E1
1.110856083E1,1.058237041E1,2.648274136E-1,3.252176907E0,1.107399439E1
1.111851183E1,1.006466729E1,-5.089445740E-1,3.235955561E0,1.058432618E1
1.112846283E1,1.030387922E1,-1.513845887E0,3.741656685E0,1.106623925E1
1.113841383E1,1.048153985E1,-2.890100357E0,3.966828282E0,1.157372388E1
1.114836583E1,1.037470888E1,-4.400686421E0,3.780269358E0,1.188659168E1
1.115831683E1,1.030422655E1,-5.859990065E0,3.317953405E0,1.230956470E1
1.116826783E1,1.015682994E1,-7.309396126E0,2.694400481E0,1.280032265E1
1.117821883E1,9.830714346E0,-8.534419380E0,2.015063950E0,1.317344835E1
1.118816983E1,9.281770139E0,-9.597101124E0,1.311908347E0,1.341553989E1
1.119812083E1,8.372072607E0,-1.060976929E1,6.531480217E-1,1.353090561E1
1.120807183E1,7.208512360E0,-1.150587731E1,9.313562036E-2,1.357779575E1
1.121802283E1,5.967105793E0,-1.222041057E1,-3.580729616E-1,1.360415386E1
1.122797483E1,4.705046567E0,-1.280917022E1,-9.008488675E-1,1.367566575E1
1.123792583E1,3.485756800E0,-1.333499863E1,-1.594641251E0,1.387499801E1
1.124787683E1,2.467645458E0,-1.358964020E1,-2.313328081E0,1.400425227E1
1.125782783E1,1.844158022E0,-1.355519191E1,-2.900965068E0,1.398426776E1
1.126777883E1,1.521019397E0,-1.336744600E1,-3.435746734E0,1.388547688E1
1.127772983E1,1.463786704E0,-1.305398847E1,-4.075202916E0,1.375342013E1
1.128768083E1,1.580851177E0,-1.270241293E1,-4.718886634E0,1.364251721E1
1.129763283E1,1.758766308E0,-1.237988636E1,-5.249467660E0,1.356140686E1
1.130758383E1,1.947214175E0,-1.212108860E1,-5.619454908E0,1.350150752E1
1.131753483E1,2.332593780E0,-1.195861552E1,-5.498288906E0,1.336714853E1
1.132748583E1,2.668583854E0,-1.196949602E1,-4.736519498E0,1.314628433E1
1.133743683E1,2.794883128E0,-1.197958130E1,-3.827354647E0,1.288294933E1
1.134738783E1,2.938492206E0,-1.206389581E1,-3.230763234E0,1.283004870E1
1.135733883E1,2.922849150E0,-1.218320357E1,-2.891576779E0,1.285825465E1
1.136728983E1,2.501217247E0,-1.223668805E1,-2.681123793E0,1.277423371E1
1.137724183E1,1.983496294E0,-1.240020427E1,-2.729731697E0,1.285109951E1
1.138719283E1,1.226502161E0,-1.274178925E1,-3.144570597E0,1.318126796E1
1.139714383E1,2.244816256E-1,-1.243412513E1,-3.990296667E0,1.306064039E1
1.140709483E1,2.227545042E-1,-1.140005557E1,-5.168945653E0,1.251914078E1
1.141704583E1,2.165432994E0,-1.040607218E1,-6.060510385E0,1.223540863E1
1.142699683E1,4.979479494E0,-9.011981363E0,-6.099249358E0,1.196711606E1
1.143694783E1,7.758723074E0,-6.818331753E0,-4.941479609E0,1.145013766E1
1.144689883E1,1.106153102E1,-3.735972022E0,-2.667006276E0,1.197613786E1
1.145685083E1,1.467897881E1,-1.089967775E-1,5.772446940E-1,1.469072873E1
1.146680183E1,1.773452672E1,3.510417432E0,3.628205498E0,1.843909823E1
1.147675283E1,1.984547331E1,6.645959344E0,4.819616033E0,2.147650543E1
1.148670383E1,2.141379946E1,9.004478801E0,4.545570484E0,2.367052295E1
1.149665483E1,2.257618851E1,1.048182637E1,3.255206349E0,2.510277555E1
1.150660583E1,2.336377104E1,1.169984115E1,1.026212075E0,2.614966905E1
1.151655683E1,2.255119050E1,1.244504890E1,-2.242185009E0,2.585464810E1
1.152650783E1,1.954904755E1,1.245960262E1,-6.120467734E0,2.397638594E1
1.153645983E1,1.626702177E1,1.170494343E1,-8.506686037E0,2.177120588E1
1.154641083E1,1.467056584E1,1.049926978E1,-7.465070057E0,1.952402210E1
1.155636183E1,1.457773193E1,8.962222143E0,-3.633724101E0,1.749387450E1
1.156631283E1,1.372719945E1,7.408684187E0,2.125989322E-1,1.560031425E1
1.157626383E1,1.148628095E1,6.552900322E0,3.570754266E0,1.369764355E1
1.158621483E1,8.557864376E0,6.208947802E0,6.366719713E0,1.234192835E1
1.159616583E1,5.851270697E0,6.400406692E0,8.084706516E0,1.185601341E1
1.160611683E1,3.702473323E0,7.085084070E0,9.081058030E0,1.209844370E1
1.161606883E1,1.823900928E0,7.813178194E0,1.041376712E1,1.314606076E1
1.162601983E1,-3.273271322E-2,8.417183291E0,1.239301921E1,1.498122061E1
1.163597083E1,-2.010852200E0,8.564502720E0,1.457119592E1,1.702098657E1
1.164592183E1,-4.034835493E0,8.294256107E0,1.641156027E1,1.882588357E1
1.165587283E1,-5.666913249E0,7.838536398E0,1.699826404E1,1.955754430E1
1.166582383E1,-7.096837558E0,7.177318634E0,1.584313255E1,1.878520309E1
1.167577483E1,-9.032352478E0,6.620493550E0,1.292708050E1,1.710332530E1
1.168572583E1,-1.137106157E1,6.638044553E0,9.071267452E0,1.598913912E1
1.169567783E1,-1.303287300E1,6.971479686E0,5.229794118E0,1.567826694E1
1.170562883E1,-1.351834393E1,7.379441092E0,1.930737891E0,1.552190459E1
1.171557983E1,-1.333147042E1,7.914920915E0,-8.331943166E-1,1.552637400E1
1.172553083E1,-1.320699373E1,8.191174373E0,-2.611562977E0,1.575881601E1
1.173548183E1,-1.307822868E1,8.257752525E0,-2.154533053E0,1.561641940E1
1.174543283E1,-1.269732001E1,8.183633219E0,4.714039877E-2,1.510615802E1
1.175538383E1,-1.151008146E1,8.080562595E0,2.313584189E0,1.425237310E1
1.176533483E1,-1.037142275E1,8.111853384E0,3.980813652E0,1.375556079E1
1.177528683E1,-9.357364697E0,8.703006887E0,5.588109155E0,1.394738566E1
1.178523783E1,-7.962454101E0,1.005337749E1,7.166789553E0,1.469128812E1
1.179518883E1,-5.881340588E0,1.187472435E1,8.816266869E0,1.591621208E1
1.180513983E1,-2.657728499E0,1.432166131E1,1.079648375E1,1.813112145E1
1.181509083E1,2.626775093E0,1.658258431E1,1.227333957E1,2.079704099E1
1.182504183E1,8.988002517E0,1.791291708E1,1.233277418E1,2.353198051E1
1.183499283E1,1.385310404E1,1.830150900E1,1.117398467E1,2.552864385E1
1.184494383E1,1.635119595E1,1.822370127E1,9.640007408E0,2.631339279E1
1.185489483E1,1.798220659E1,1.753176984E1,8.207629023E0,2.642135276E1
1.186484683E1,1.982106937E1,1.562122370E1,6.773538573E0,2.613002575E1
1.187479783E1,2.159685473E1,1.259020603E1,5.069713726E0,2.550763454E1
1.188474883E1,2.201740987E1,8.572461365E0,2.874454962E0,2.380159496E1
1.189469983E1,2.046827896E1,4.249795513E0,3.999271850E-1,2.090863810E1
1.190465083E1,1.763238873E1,6.036899328E-2,-1.554788821E0,1.770090803E1
1.191460183E1,1.429531025E1,-3.681142681E0,-2.463893884E0,1.496587718E1
1.192455283E1,1.117891154E1,-6.668786289E0,-2.210881501E0,1.320336210E1
1.193450483E1,8.872922881E0,-9.249124550E0,-9.911944158E-1,1.285525308E1
1.194445583E1,7.178851774E0,-1.142322926E1,2.180754161E-1,1.349346643E1
1.195440683E1,5.989542729E0,-1.321249596E1,6.679612117E-1,1.452208125E1
1.196435783E1,5.076399432E0,-1.480729713E1,5.579473110E-1,1.566324311E1
1.197430883E1,4.009406244E0,-1.613170785E1,6.396883160E-2,1.662261798E1
1.198425983E1,2.558982767E0,-1.719013340E1,-5.020268793E-1,1.738680851E1
1.199421083E1,9.782929730E-1,-1.789794353E1,-6.878185022E-1,1.793785200E1
1.200416183E1,-4.360502601E-1,-1.825275375E1,-2.904988830E-1,1.826027242E1
1.201411383E1,-1.460460223E0,-1.830069156E1,3.694621682E-1,1.836259127E1
1.202406483E1,-1.973544626E0,-1.816260021E1,8.301338840E-1,1.828835824E1
1.203401583E1,-1.994632609E0,-1.796876501E1,8.740733707E-1,1.810025081E1
1.204396683E1,-1.787951370E0,-1.778110681E1,7.282859123E-1,1.788560678E1
1.205391783E1,-1.799906294E0,-1.763375698E1,5.975610276E-1,1.773544832E1
1.206386883E1,-2.175291984E0,-1.739634950E1,4.318743248E-1,1.753714305E1
1.207381983E1,-2.914123350E0,-1.708400527E1,1.729103529E-1,1.733162569E1
1.208377021E1,-3.635836700E0,-1.670049458E1,-1.542191434E-1,1.709238460E1
1.209372221E1,-4.053841575E0,-1.630330375E1,-4.452833059E-1,1.680564256E1
1.210367321E1,-4.090117993E0,-1.591035565E1,-6.530369246E-1,1.644064900E1
1.211362421E1,-3.800844541E0,-1.564488037E1,-7.827935104E-1,1.611897846E1
1.212357521E1,-3.444242738E0,-1.545393369E1,-1.021043136E0,1.586598259E1
1.213352621E1,-3.044275939E0,-1.520348692E1,-1.558050106E0,1.558336134E1
1.214347721E1,-2.567584898E0,-1.501401491E1,-2.431747062E0,1.542486725E1
1.215342821E1,-1.801746998E0,-1.507579426E1,-3.397832218E0,1.555863517E1
1.216338021E1,-6.554833996E-1,-1.512267255E1,-3.852290683E0,1.561937986E1
1.217333121E1,1.152066960E0,-1.439678517E1,-3.380043819E0,1.483305018E1
1.218328221E1,4.024115793E0,-1.230312645E1,-2.179167373E0,1.312665985E1
1.219323321E1,8.020419888E0,-9.108331198E0,-8.236481524E-1,1.216417809E1
1.220318421E1,1.377446952E1,-5.131372030E0,3.903098309E-1,1.470439836E1
1.221313521E1,2.104591136E1,-1.075166134E0,1.962460205E0,2.116453679E1
1.222308621E1,2.692927217E1,2.740084192E0,4.071532034E0,2.737281743E1
1.223303721E1,2.865395754E1,7.478941407E0,6.834098185E0,3.039224811E1
1.224298921E1,2.762141410E1,1.285981647E1,9.876634870E0,3.202913225E1
1.225294021E1,2.826437861E1,1.669206290E1,1.185694648E1,3.490110660E1
1.226289121E1,2.963446544E1,1.819702628E1,1.066800054E1,3.637498512E1
1.227284221E1,2.731996440E1,1.883514578E1,6.792820351E0,3.387160433E1
1.228279321E1,2.075041180E1,1.872746931E1,2.297052941E0,2.804592927E1
1.229274421E1,1.270910565E1,1.791401051E1,-2.142564972E0,2.206861400E1
1.230269521E1,5.750288113E0,1.663632256E1,-6.406251569E0,1.873160700E1
1.231264621E1,9.355960196E-1,1.520681633E1,-8.232002556E0,1.731728815E1
1.232259821E1,-1.741091491E0,1.398074174E1,-6.913450749E0,1.569357641E1
1.233254921E1,-3.025234773E0,1.277544816E1,-4.040589738E0,1.373646558E1
1.234250021E1,-4.068884999E0,1.163491834E1,-1.594384996E0,1.242856442E1
1.235245121E1,-5.710420627E0,1.095014975E1,3.991895588E-1,1.235613352E1
1.236240221E1,-7.188580956E0,1.076529704E1,2.163315717E0,1.312430004E1
1.237235321E1,-7.808465922E0,1.080866584E1,3.180336846E0,1.370817055E1
1.238230421E1,-8.129009700E0,1.086546920E1,3.418868161E0,1.399385148E1
1.239225521E1,-8.665825027E0,1.085119498E1,3.282109973E0,1.426944995E1
1.240220721E1,-9.426970537E0,1.051786510E1,3.232624403E0,1.448941407E1
1.241215821E1,-1.039365503E1,9.830563488E0,3.456844658E0,1.471794206E1
1.242210921E1,-1.132806348E1,8.929906336E0,3.911976721E0,1.494562850E1
1.243206021E1,-1.175682343E1,7.884073344E0,4.632655406E0,1.489439512E1
1.244201121E1,-1.176728761E1,6.680392427E0,5.601344912E0,1.464485458E1
1.245196221E1,-1.148970391E1,5.480632653E0,6.798279312E0,1.443146673E1
1.246191321E1,-1.083892752E1,4.567452520E0,8.198996193E0,1.433762571E1
1.247186421E1,-9.727299905E0,3.915652866E0,9.282530862E0,1.400421651E1
1.248181621E1,-8.349490076E0,3.294808956E0,9.605658524E0,1.314680289E1
1.249176721E1,-6.829544958E0,3.015237789E0,8.997007813E0,1.169104327E1
1.250171821E1,-5.407720213E0,3.038946786E0,7.538843207E0,9.762827069E0
1.251166921E1,-4.350450068E0,3.585355348E0,6.226331574E0,8.399309116E0
1.252162021E1,-3.504874272E0,4.903824710E0,5.844722400E0,8.395976440E0
1.253157121E1,-2.320710776E0,6.540731682E0,6.309187789E0,9.379377378E0
1.254152221E1,-2.811727202E-1,8.651023386E0,7.501684152E0,1.145401802E1
1.255147321E1,4.307532674E0,1.173076123E1,9.311485105E0,1.558426615E1
1.256142521E1,1.240335241E1,1.387028433E1,1.125660349E1,2.174716213E1
1.257137621E1,2.139080821E1,1.419270565E1,1.210123379E1,2.838026478E1
1.258132721E1,2.764132270E1,1.334472606E1,1.033767730E1,3.238814607E1
1.259127821E1,3.006678283E1,1.170255660E1,6.190661219E0,3.285248160E1
1.260122921E1,2.861787788E1,9.271240473E0,1.178005501E0,3.010525753E1
1.261118021E1,2.518312985E1,6.403245515E0,-3.605097887E0,2.623334353E1
1.262113121E1,2.126448029E1,3.322048795E0,-7.568451169E0,2.281437229E1
1.263108221E1,1.797400412E1,2.210288447E-1,-8.634520204E0,1.994163025E1
1.264103421E1,1.525691293E1,-2.633262579E0,-5.973225489E0,1.659478492E1
1.265098521E1,1.277551833E1,-5.374869971E0,-2.401617529E0,1.406665783E1
1.266093621E1,1.014222944E1,-8.237573199E0,1.944988579E-2,1.306609385E1
1.267088721E1,7.203732846E0,-1.080223390E1,2.143438254E0,1.315964862E1
1.268083821E1,4.053703873E0,-1.260483810E1,3.905869889E0,1.380471942E1
1.269078921E1,1.184766344E0,-1.368839265E1,4.351322472E0,1.441213974E1
1.270074021E1,-8.767671829E-1,-1.444013409E1,3.179137875E0,1.481192461E1
1.271069221E1,-2.171583388E0,-1.499224924E1,1.135273172E0,1.519118681E1
1.272064321E1,-3.062247648E0,-1.515736525E1,-7.775966513E-1,1.548314369E1
1.273059421E1,-3.802209865E0,-1.502964101E1,-2.406959399E0,1.568886109E1
1.274054521E1,-4.491210675E0,-1.495058432E1,-3.667591174E0,1.603565308E1
1.275049621E1,-5.177572635E0,-1.499974537E1,-4.137465237E0,1.639872672E1
1.276044721E1,-5.555667633E0,-1.492485657E1,-3.675452755E0,1.634398175E1
1.277039821E1,-5.566079185E0,-1.486768483E1,-2.473941740E0,1.606703699E1
1.278034921E1,-5.424667783E0,-1.482373950E1,-1.050841278E0,1.582006766E1
1.279030121E1,-5.231511446E0,-1.475298819E1,6.564230472E-2,1.565323230E1
1.280025221E1,-5.226275849E0,-1.460554363E1,7.480613418E-1,1.553046876E1
1.281020321E1,-5.403075185E0,-1.436259416E1,9.962076724E-1,1.537757335E1
1.282015421E1,-5.553256241E0,-1.412746008E1,9.164528203E-1,1.520735575E1
1.283010521E1,-5.594804801E0,-1.374358569E1,5.920273688E-1,1.485053820E1
1.284005621E1,-5.296935357E0,-1.328632290E1,2.742863081E-1,1.430591253E1
1.285000721E1,-4.615542945E0,-1.297030078E1,1.887158154E-1,1.376835330E1
1.285995921E1,-3.757027845E0,-1.278514285E1,4.142788835E-1,1.333217022E1
1.286991021E1,-2.954534919E0,-1.274261955E1,6.535070407E-1,1.309697298E1
1.287986121E1,-2.248376625E0,-1.275957882E1,2.148807898E-1,1.295794053E1
1.288981221E1,-1.630843409E0,-1.281350184E1,-1.030190082E0,1.295788452E1
1.289976321E1,-1.599231607E0,-1.298837335E1,-2.608908341E0,1.334397942E1
1.290971421E1,-1.652548859E0,-1.247392128E1,-3.366704274E0,1.302552600E1
1.291966521E1,2.084427130E-1,-1.061254204E1,-1.886440262E0,1.078091619E1
1.292961721E1,5.670641434E0,-8.017770515E0,1.216459276E0,9.895483388E0
1.293956821E1,1.339561555E1,-5.131304203E0,4.315370282E0,1.497982708E1
1.294951921E1,2.112425470E1,-4.957848305E-1,7.554251790E0,2.243984535E1
1.295947021E1,2.796304820E1,5.992572756E0,1.086211992E1,3.059131645E1
1.296942121E1,3.275099864E1,1.268000523E1,1.341502480E1,3.759485782E1
1.297937221E1,3.350891239E1,1.702658561E1,1.286840252E1,3.972842321E1
1.298932321E1,2.991490959E1,1.871468846E1,8.738869615E0,3.635256831E1
1.299927421E1,2.384791114E1,1.949301485E1,3.783005855E0,3.103242863E1
1.300922621E1,1.762356177E1,1.851561533E1,-6.142675459E-1,2.556942051E1
1.301917721E1,1.152226355E1,1.608593000E1,-4.211019702E0,2.022998735E1
1.302912821E1,5.198281719E0,1.351638511E1,-6.488423660E0,1.586866223E1
1.303907921E1,-4.526744789E-1,1.144242684E1,-6.425124042E0,1.313073741E1
1.304903021E1,-4.490869782E0,1.026766157E1,-4.901051960E0,1.223164322E1
1.305898121E1,-6.099335897E0,9.544956239E0,-3.093938388E0,1.174225459E1
1.306893221E1,-6.143201124E0,9.162691593E0,-1.251902758E0,1.110230146E1
1.307888321E1,-6.239522892E0,9.182771516E0,5.194854958E-1,1.111417131E1
1.308883608E1,-6.812449454E0,9.395510763E0,2.082665949E0,1.179078401E1
1.309878708E1,-7.472021812E0,9.696365211E0,3.194378350E0,1.265127113E1
1.310873808E1,-7.948778048E0,1.005431304E1,3.772006073E0,1.336040093E1
1.311868908E1,-8.128268273E0,1.019922810E1,3.910257640E0,1.361554676E1
1.312864008E1,-8.183117495E0,1.001274168E1,3.849408005E0,1.349208471E1
1.313859108E1,-8.399278532E0,9.517636878E0,3.861398306E0,1.326814563E1
1.314854208E1,-8.663329436E0,8.704892614E0,4.056864878E0,1.293393154E1
1.315849308E1,-8.670877606E0,7.584540367E0,4.357808204E0,1.231664984E1
1.316844508E1,-8.586279505E0,6.373363904E0,4.602628784E0,1.164165602E1
1.317839608E1,-8.287965088E0,5.183999895E0,4.651598046E0,1.082596807E1
1.318834708E1,-7.532645743E0,4.145070126E0,4.475414422E0,9.692868125E0
1.319829808E1,-5.927051781E0,3.246374715E0,4.303546042E0,8.011828764E0
1.320824908E1,-3.751994562E0,2.515251734E0,4.163712219E0,6.143325966E0
1.321820008E1,-1.534960182E0,1.835641553E0,4.150468276E0,4.790831825E0
1.322815108E1,7.936542749E-2,1.728050446E0,4.356706588E0,4.687573947E0
1.323810308E1,1.177891772E0,2.591586549E0,4.574999521E0,5.388355082E0
1.324805408E1,3.117499158E0,3.317767464E0,5.045016257E0,6.795481659E0
1.325800508E1,6.030063348E0,4.093404713E0,6.214170535E0,9.577762869E0
1.326795608E1,1.013616003E1,4.708286802E0,7.521885113E0,1.347176530E1
1.327790708E1,1.426054972E1,4.328049384E0,7.734122669E0,1.679023357E1
1.328785808E1,1.666777005E1,3.423773975E0,6.207370808E0,1.811265412E1
1.329780908E1,1.778887191E1,2.486749481E0,3.873726575E0,1.837481005E1
1.330776008E1,1.864379097E1,1.330820435E0,1.658187329E0,1.876463722E1
1.331771208E1,1.911669156E1,-5.851589370E-1,-5.008420507E-1,1.913220191E1
1.332766308E1,1.827241911E1,-2.946685032E0,-2.635167017E0,1.869514263E1
1.333761408E1,1.586214770E1,-5.134047716E0,-4.515714601E0,1.727303835E1
1.334756508E1,1.275634648E1,-7.026600804E0,-6.001994959E0,1.575187093E1
1.335751608E1,9.682341249E0,-8.409554429E0,-7.242459540E0,1.472825713E1
1.336746708E1,7.257422565E0,-9.430964770E0,-7.787013073E0,1.422149259E1
1.337741808E1,5.467083485E0,-1.033977645E1,-7.469792268E0,1.387796006E1
1.338737008E1,3.991856119E0,-1.123076815E1,-6.495416930E0,1.357407491E1
1.339732108E1,2.627508334E0,-1.199322169E1,-5.117133476E0,1.330136164E1
1.340727208E1,1.347794318E0,-1.266420021E1,-3.681066667E0,1.325702713E1
1.341722308E1,1.298915103E-1,-1.327569383E1,-2.339481508E0,1.348087877E1
1.342717408E1,-8.801208535E-1,-1.358758666E1,-1.296770344E0,1.367767294E1
1.343712508E1,-1.607341403E0,-1.366070843E1,-9.502772087E-1,1.378773106E1
1.344707608E1,-2.140750727E0,-1.370764286E1,-1.591437854E0,1.396477572E1
1.345702708E1,-2.306852582E0,-1.363544261E1,-2.750586376E0,1.410009182E1
1.346697908E1,-2.108410362E0,-1.334255090E1,-3.847783649E0,1.404544402E1
1.347693008E1,-1.539336239E0,-1.298755357E1,-4.545016168E0,1.384569521E1
1.348688108E1,-4.764539355E-1,-1.282995825E1,-4.724735019E0,1.368056863E1
1.349683208E1,5.848715463E-1,-1.288934725E1,-4.420758158E0,1.363893140E1
1.350678308E1,7.415564606E-1,-1.320024604E1,-3.482204032E0,1.367194743E1
1.351673408E1,8.878236830E-2,-1.379438747E1,-2.192521098E0,1.396782577E1
1.352668508E1,-7.623880434E-1,-1.457584445E1,-1.537913611E0,1.467656824E1
1.353663708E1,-1.719251556E0,-1.470841136E1,-2.457037439E0,1.501100342E1
1.354658808E1,-1.821613498E0,-1.418476396E1,-4.946370220E0,1.513249427E1
1.355653908E1,-3.859513164E-1,-1.358569800E1,-7.113273497E0,1.534010458E1
1.356649008E1,1.599275461E0,-1.258077096E1,-7.299198582E0,1.463255890E1
1.357644108E1,4.561216464E0,-1.077407839E1,-4.515363768E0,1.254089195E1
1.358639208E1,8.122616939E0,-8.527605620E0,-6.824989795E-2,1.177716526E1
1.359634308E1,1.108061633E1,-5.264141248E0,4.579264480E0,1.309430810E1
1.360629408E1,1.431512295E1,-6.539309639E-1,9.323552004E0,1.709616895E1
1.361624608E1,1.815619283E1,4.461444254E0,1.416572309E1,2.345675880E1
1.362619708E1,2.036664734E1,8.909269173E0,1.679766712E1,2.786282508E1
1.363614808E1,1.944797024E1,1.168613761E1,1.526028327E1,2.734347462E1
1.364609908E1,1.595998682E1,1.313382518E1,1.033843627E1,2.311064273E1
1.365605008E1,1.134308498E1,1.416004661E1,5.162903141E0,1.886340546E1
1.366600108E1,7.534455457E0,1.440460173E1,8.040634882E-1,1.627596658E1
1.367595208E1,5.314390465E0,1.398117677E1,-2.093116093E0,1.510288664E1
1.368590308E1,3.521934693E0,1.339012267E1,-2.971269650E0,1.416078573E1
1.369585508E1,1.519380861E0,1.289026175E1,-2.235605721E0,1.317062258E1
1.370580608E1,-9.301984549E-2,1.235388379E1,-7.617378330E-1,1.237769534E1
1.371575708E1,-1.186714636E0,1.195319633E1,4.759610883E-1,1.202138648E1
1.372570808E1,-2.165854286E0,1.169313556E1,1.241766171E0,1.195668546E1
1.373565908E1,-3.421055020E0,1.145613622E1,1.724093635E0,1.207970088E1
1.374561008E1,-5.031766466E0,1.112008270E1,1.999235537E0,1.236817916E1
1.375556108E1,-6.467567226E0,1.061756597E1,2.372351046E0,1.265662603E1
1.376551308E1,-7.490051116E0,9.982822645E0,2.961047548E0,1.282674613E1
1.377546408E1,-8.259332442E0,9.345971982E0,3.489565676E0,1.295147997E1
1.378541508E1,-8.793576749E0,8.678043954E0,3.939271524E0,1.296739369E1
1.379536608E1,-9.290792393E0,7.854653664E0,4.225097458E0,1.287889188E1
1.380531708E1,-9.878282615E0,6.808532989E0,4.187503370E0,1.270715442E1
1.381526808E1,-1.055627546E1,5.725887097E0,3.981684887E0,1.265205711E1
1.382521908E1,-1.103492151E1,4.736482660E0,4.031664548E0,1.266720489E1
1.383517008E1,-1.109499931E1,3.830475891E0,4.534292375E0,1.258297909E1
1.384512208E1,-1.083037655E1,3.055352027E0,5.582784680E0,1.256183574E1
1.385507308E1,-1.018172738E1,2.426506203E0,6.998480959E0,1.259103810E1
1.386502408E1,-9.106529086E0,1.827274187E0,8.185668050E0,1.238034589E1
1.387497508E1,-7.643211914E0,1.480008634E0,8.765964442E0,1.172396036E1
1.388492608E1,-6.010381621E0,1.423664280E0,9.041741352E0,1.095009561E1
1.389487708E1,-4.438313838E0,1.782540064E0,9.306217933E0,1.046335372E1
1.390482808E1,-3.695826209E0,2.633829759E0,9.543733002E0,1.056782997E1
1.391477908E1,-2.777556074E0,4.150631998E0,1.003277775E1,1.120710458E1
1.392473108E1,-6.430908108E-1,6.066679782E0,1.111235619E1,1.267685408E1
1.393468208E1,3.108668109E0,8.150800518E0,1.244956178E1,1.520167606E1
1.394463308E1,8.152608477E0,1.000086364E1,1.305662439E1,1.835640867E1
1.395458408E1,1.353740000E1,1.132669757E1,1.231078865E1,2.152000915E1
1.396453508E1,1.818756548E1,1.264719767E1,1.019393520E1,2.438555847E1
1.397448608E1,2.271745256E1,1.318188111E1,7.256325628E0,2.724883304E1
1.398443708E1,2.588876716E1,1.189496040E1,3.994731195E0,2.876936261E1
1.399438908E1,2.561205352E1,9.549789548E0,8.101155026E-1,2.734651812E1
1.400434008E1,2.230364277E1,6.541359088E0,-1.440380738E0,2.328769109E1
1.401429108E1,1.794528025E1,3.035025936E0,-2.157481073E0,1.832755277E1
1.402424208E1,1.412965161E1,-4.498029113E-1,-1.588789065E0,1.422580852E1
1.403419308E1,1.093225025E1,-3.574592378E0,-2.727740720E-2,1.150184987E1
1.404414408E1,8.394241741E0,-6.156143936E0,1.697819756E0,1.054722686E1
1.405409508E1,6.362421425E0,-8.190805414E0,2.732051872E0,1.072538145E1
1.406404608E1,4.585207590E0,-9.822541108E0,2.970408940E0,1.123965176E1
1.407399808E1,3.066434255E0,-1.110247673E1,2.637993561E0,1.181638772E1
1.408394846E1,1.826631286E0,-1.217776098E1,2.069539096E0,1.248669037E1
1.409389946E1,8.080150366E-1,-1.312082331E1,1.508116054E0,1.323190488E1
1.410385046E1,-1.254733542E-1,-1.391279943E1,8.635869741E-1,1.394014039E1
1.411380146E1,-1.100903238E0,-1.459467015E1,1.561485784E-1,1.463696577E1
1.412375246E1,-2.188228657E0,-1.513578786E1,-4.626344799E-1,1.530014540E1
1.413370346E1,-3.309376125E0,-1.551998267E1,-7.388844292E-1,1.588608771E1
1.414365446E1,-4.318868086E0,-1.575726853E1,-6.652260303E-1,1.635196192E1
1.415360646E1,-4.804682829E0,-1.580863047E1,-2.993691091E-1,1.652535616E1
1.416355746E1,-4.489199817E0,-1.574345507E1,2.939874780E-1,1.637362883E1
1.417350846E1,-3.698978443E0,-1.561803112E1,7.791401701E-1,1.606898867E1
1.418345946E1,-3.045873690E0,-1.550543246E1,6.952514827E-1,1.581705272E1
1.419341046E1,-2.986920308E0,-1.533391608E1,2.288249373E-1,1.562379711E1
1.420336146E1,-3.497333118E0,-1.504317147E1,-3.290754497E-1,1.544786838E1
1.421331246E1,-4.293558998E0,-1.471425390E1,-8.504400945E-1,1.535145481E1
1.422326446E1,-4.849860756E0,-1.432626073E1,-1.058996243E0,1.516193817E1
1.423321546E1,-4.808845462E0,-1.395425970E1,-7.597999196E-1,1.477916285E1
1.424316646E1,-4.205831468E0,-1.364111675E1,-2.994227573E-2,1.427480231E1
1.425311746E1,-3.460469931E0,-1.338347205E1,6.108059943E-1,1.383709725E1
1.426306846E1,-2.744301789E0,-1.314916009E1,6.775215554E-1,1.344955905E1
1.427301946E1,-2.019875039E0,-1.289433609E1,3.212191308E-1,1.305553446E1
1.428297046E1,-7.792531675E-1,-1.237426368E1,-1.733667281E-1,1.239998763E1
1.429292246E1,1.002280006E0,-1.133675128E1,-6.975403753E-1,1.140232684E1
1.430287346E1,3.217178982E0,-9.191075147E0,-1.206090262E0,9.812275816E0
1.431282446E1,6.352049634E0,-5.845411786E0,-1.241038632E0,8.721098004E0
1.432277546E1,1.196752434E1,-2.259437218E0,-1.860831065E-1,1.218036627E1
1.433272646E1,1.925813453E1,1.819041892E0,1.361676338E0,1.939172044E1
1.434267746E1,2.589705851E1,6.730368580E0,2.918785043E0,2.691606967E1
1.435262846E1,3.129652479E1,1.080325717E1,5.678871975E0,3.359214814E1
1.436258046E1,3.314314098E1,1.412423943E1,9.187482033E0,3.718026035E1
1.437253146E1,3.070884220E1,1.678638901E1,1.089008013E1,3.665255367E1
1.438248246E1,2.596264556E1,1.757479833E1,9.207700535E0,3.267589708E1
1.439243346E1,2.020211605E1,1.695230375E1,5.428537470E0,2.692536192E1
1.440238446E1,1.435727085E1,1.617458899E1,1.557578967E0,2.168351004E1
1.441233546E1,9.056119655E0,1.491318553E1,-1.757043865E0,1.753578082E1
1.442228646E1,4.168194695E0,1.362348622E1,-4.432498198E0,1.492046461E1
1.443223746E1,2.484926319E-1,1.241936208E1,-5.111855779E0,1.343254900E1
1.444218946E1,-2.303626966E0,1.144416814E1,-3.491414566E0,1.218464842E1
1.445214046E1,-3.644758966E0,1.075172449E1,-1.129317052E0,1.140873369E1
1.446209146E1,-4.295789126E0,1.036096910E1,7.560381134E-1,1.124166707E1
1.447204246E1,-4.867539228E0,1.043070299E1,2.331718890E0,1.174433549E1
1.448199346E1,-5.570833556E0,1.081167365E1,3.543683996E0,1.266823468E1
1.449194446E1,-6.325349493E0,1.116139562E1,3.848307559E0,1.339388926E1
1.450189546E1,-7.159248984E0,1.134896377E1,3.121316221E0,1.377666286E1
1.451184646E1,-7.720247226E0,1.136065119E1,2.113501825E0,1.389724802E1
1.452179846E1,-7.902076337E0,1.099344838E1,1.266918700E0,1.359793369E1
1.453174946E1,-8.258943018E0,1.020061038E1,5.880075543E-1,1.313804950E1
1.454170046E1,-9.048618262E0,9.116165882E0,4.478385392E-1,1.285233567E1
1.455165146E1,-9.822118939E0,7.935415406E0,1.192586264E0,1.268333947E1
1.456160246E1,-1.035347297E1,6.577797766E0,2.303186817E0,1.248064483E1
1.457155346E1,-1.055840501E1,5.228025920E0,3.461158733E0,1.227973091E1
1.458150446E1,-1.051508533E1,3.976914437E0,4.512144291E0,1.211372420E1
1.459145646E1,-1.034117276E1,2.851968910E0,5.407748280E0,1.201321448E1
1.460140746E1,-9.587768383E0,1.895684271E0,6.166354344E0,1.155607404E1
1.461135846E1,-8.430264097E0,1.101879431E0,6.619404799E0,1.077497150E1
1.462130946E1,-7.042257308E0,5.872133562E-1,6.670570275E0,9.717752585E0
1.463126046E1,-5.716347365E0,2.360842556E-1,6.402354984E0,8.586181475E0
1.464121146E1,-5.115795633E0,1.851438975E-1,6.181063600E0,8.025658256E0
1.465116246E1,-5.069765766E0,8.561323589E-1,6.616049666E0,8.378997597E0
1.466111346E1,-5.144100834E0,2.331288389E0,8.016032138E0,9.805786566E0
1.467106546E1,-3.919965187E0,4.659124582E0,1.019078004E1,1.187120747E1
1.468101646E1,-3.284404421E-1,7.314330007E0,1.278297587E1,1.473131931E1
1.469096746E1,5.220086571E0,9.445189292E0,1.516282772E1,1.861107867E1
1.470091846E1,1.096673362E1,1.090357317E1,1.575569446E1,2.207711625E1
1.471086946E1,1.619778840E1,1.270499155E1,1.443841617E1,2.514464200E1
1.472082046E1,2.233569955E1,1.401006202E1,1.171486148E1,2.885140017E1
1.473077146E1,2.818946174E1,1.352315268E1,7.913525770E0,3.225128372E1
1.474072246E1,3.034091902E1,1.175799756E1,2.932760765E0,3.267143950E1
1.475067446E1,2.866183959E1,9.223916618E0,-2.472553903E0,3.021084588E1
1.476062546E1,2.479752001E1,5.971239774E0,-7.662255126E0,2.663236484E1
1.477057646E1,2.050573155E1,2.119230927E0,-9.921880624E0,2.287837147E1
1.478052746E1,1.694326864E1,-1.886291304E0,-8.173362000E0,1.890598565E1
1.479047846E1,1.400965973E1,-5.133402768E0,-3.873562853E0,1.541515095E1
1.480042946E1,1.175960905E1,-8.017058909E0,-1.142135172E-1,1.423287333E1
1.481038046E1,9.874981277E0,-1.070550342E1,2.484665533E0,1.477486451E1
1.482033246E1,7.911427789E0,-1.288298548E1,4.294361821E0,1.571634652E1
1.483028346E1,5.965494300E0,-1.440546010E1,5.184080586E0,1.643104058E1
1.484023446E1,4.251521318E0,-1.540862245E1,4.399247421E0,1.657873509E1
1.485018546E1,2.909551997E0,-1.626809181E1,2.063862619E0,1.665460396E1
1.486013646E1,1.669189157E0,-1.701231139E1,-3.188966167E-1,1.709697711E1
1.487008746E1,-5.464223027E-3,-1.738085788E1,-2.343613150E0,1.753815193E1
1.488003846E1,-1.813005519E0,-1.748430799E1,-3.780416416E0,1.797997673E1
1.488999046E1,-3.261808148E0,-1.764276169E1,-4.176793610E0,1.842151018E1
1.489994146E1,-4.059902799E0,-1.795361137E1,-3.595984709E0,1.875489477E1
1.490989246E1,-4.308473491E0,-1.822192840E1,-2.457131580E0,1.888489116E1
1.491984346E1,-4.339177513E0,-1.834013922E1,-1.307345911E0,1.889175273E1
1.492979446E1,-4.350346572E0,-1.841079463E1,-4.910363066E-1,1.892416421E1
1.493974546E1,-4.379899569E0,-1.833367571E1,1.206479394E-1,1.884997987E1
1.494969646E1,-4.177242968E0,-1.808942581E1,5.418699530E-1,1.857337633E1
1.495964846E1,-3.678868698E0,-1.762452305E1,5.136281937E-1,1.801171013E1
1.496959946E1,-3.062327755E0,-1.700403407E1,2.971350342E-2,1.727761294E1
1.497955046E1,-2.601238548E0,-1.633117041E1,-5.682675004E-1,1.654679718E1
1.498950146E1,-2.157713792E0,-1.564751395E1,-1.028177909E0,1.582901044E1
1.499945246E1,-1.687022873E0,-1.517867952E1,-1.380032649E0,1.533436821E1
1.500940346E1,-1.289703400E0,-1.506214685E1,-1.724189237E0,1.521526967E1
1.501935446E1,-9.646414787E-1,-1.507672981E1,-1.814852070E0,1.521617570E1
1.502930546E1,-4.641899854E-1,-1.492298429E1,-1.328197667E0,1.498916414E1
1.503925746E1,6.029023129E-1,-1.411407229E1,-3.090493208E-1,1.413032340E1
1.504920846E1,2.415328665E0,-1.231149499E1,9.108918259E-1,1.257920687E1
1.505915946E1,5.721742591E0,-9.629373077E0,2.035233335E0,1.138443406E1
1.506911046E1,1.075856222E1,-6.416612835E0,2.989253932E0,1.287847896E1
1.507906146E1,1.679154859E1,-2.632016245E0,3.943008772E0,1.744794921E1
1.508901233E1,2.163608253E1,1.854537707E0,4.857347239E0,2.225203810E1
1.509896333E1,2.415439879E1,7.146987373E0,5.460216515E0,2.577456836E1
1.510891533E1,2.474394548E1,1.172079406E1,6.182700820E0,2.806894442E1
1.511886633E1,2.459042800E1,1.554094494E1,8.075353310E0,3.018975737E1
1.512881733E1,2.491976190E1,1.868020393E1,1.049723729E1,3.286543081E1
1.513876833E1,2.481654919E1,2.065443092E1,1.177781377E1,3.436835067E1
1.514871933E1,2.250733404E1,2.175852557E1,1.101043571E1,3.318498478E1
1.515867033E1,1.838170824E1,2.194777889E1,8.146298747E0,2.976498580E1
1.516862133E1,1.369777393E1,2.163806357E1,3.877538960E0,2.590116048E1
1.517857233E1,9.030298936E0,2.085074300E1,-5.434098172E-1,2.272872801E1
1.518852433E1,4.749785661E0,1.966882893E1,-4.387475806E0,2.070442559E1
1.519847533E1,1.281029640E0,1.813072119E1,-6.167927245E0,1.919394213E1
1.520842633E1,-1.493575344E0,1.644083260E1,-5.267613909E0,1.732857467E1
1.521837733E1,-3.402005961E0,1.466063727E1,-1.789088945E0,1.515614624E1
1.522832833E1,-4.754554650E0,1.315237372E1,2.199813745E0,1.415732690E1
1.523827933E1,-6.083541983E0,1.210899305E1,5.117241064E0,1.448528052E1
1.524823033E1,-7.223334467E0,1.145902123E1,6.652219373E0,1.509098244E1
1.525818133E1,-7.949338211E0,1.090232654E1,6.627489159E0,1.503250859E1
1.526813333E1,-8.096664072E0,1.040426656E1,5.554754298E0,1.430594377E1
1.527808433E1,-7.638000875E0,9.796967726E0,4.257105117E0,1.313173934E1
1.528803533E1,-6.690495247E0,8.999227417E0,3.433006729E0,1.172750425E1
1.529798633E1,-5.785009464E0,7.945408882E0,2.915326999E0,1.025158467E1
1.530793733E1,-5.283292633E0,6.708464910E0,2.396683064E0,8.869090833E0
1.531788833E1,-4.872160867E0,5.296042487E0,1.952536165E0,7.456434471E0
1.532783933E1,-4.449983711E0,3.912979519E0,1.694477488E0,6.163198658E0
1.533779133E1,-3.707213076E0,2.571741099E0,1.712005686E0,4.825789526E0
1.534774233E1,-2.516846269E0,1.058982795E0,2.027725511E0,3.401121940E0
1.535769333E1,-1.392831327E0,-4.682549697E-1,2.389989903E0,2.805582570E0
1.536764433E1,-6.694880658E-1,-1.674847215E0,2.471613671E0,3.059771495E0
1.537759533E1,3.900794506E-1,-2.519599138E0,2.278572085E0,3.419419913E0
1.538754633E1,1.782825993E0,-3.054924595E0,1.966503993E0,4.046995275E0
1.539749733E1,2.781411143E0,-3.402356209E0,1.739767681E0,4.726422252E0
1.540744933E1,3.129514017E0,-3.497251841E0,1.875040677E0,5.053751672E0
1.541740033E1,3.031439254E0,-2.761016055E0,2.606165997E0,4.858491001E0
1.542735133E1,2.978527799E0,-1.597013174E0,3.702442041E0,5.012998703E0
1.543730233E1,3.421407315E0,-5.266692388E-1,4.917044095E0,6.013379344E0
1.544725333E1,4.343937439E0,1.752422225E-1,6.018928496E0,7.424823402E0
1.545720433E1,5.395958539E0,5.841666645E-1,6.800548616E0,8.700866665E0
1.546715533E1,6.234776707E0,1.437520427E0,6.790800723E0,9.330266878E0
1.547710633E1,7.171414116E0,2.133815053E0,6.448077287E0,9.877249000E0
1.548705833E1,8.472153550E0,1.963957531E0,6.154078115E0,1.065397543E1
1.549700933E1,1.050232203E1,1.417903018E0,6.496292258E0,1.243024658E1
1.550696033E1,1.159842470E1,2.411684096E-1,7.896569429E0,1.403343958E1
1.551691133E1,1.227098314E1,-2.214045283E0,8.562304167E0,1.512587440E1
1.552686233E1,1.259432481E1,-4.825422903E0,8.524923502E0,1.595543933E1
1.553681333E1,1.081933818E1,-6.493207852E0,7.206824854E0,1.453128182E1
1.554676433E1,8.101762260E0,-7.327929461E0,5.075829914E0,1.204579392E1
1.555671633E1,6.152046792E0,-7.617329214E0,3.101432179E0,1.027084542E1
1.556666733E1,4.500857119E0,-7.642668123E0,1.184790317E0,8.948285810E0
1.557661833E1,2.898087069E0,-7.315218784E0,-7.498276395E-1,7.904022773E0
1.558656933E1,1.863462751E0,-7.014816325E0,-2.477659984E0,7.669350722E0
1.559652033E1,1.512095961E0,-6.883804196E0,-3.802033864E0,8.008036957E0
1.560647133E1,1.591250158E0,-6.770775179E0,-4.740813693E0,8.417291016E0
1.561642233E1,1.794114189E0,-6.535539354E0,-5.126928731E0,8.498089114E0
1.562637433E1,2.130331281E0,-6.030664442E0,-5.267877619E0,8.285997803E0
1.563632533E1,3.077393691E0,-5.341150247E0,-5.381219462E0,8.182649986E0
1.564627633E1,4.136344326E0,-4.889744614E0,-5.465678984E0,8.419773960E0
1.565622733E1,4.575999395E0,-4.619332525E0,-5.626816553E0,8.598782935E0
1.566617833E1,4.280544558E0,-4.169358290E0,-5.846795238E0,8.360121101E0
1.567612933E1,3.429474718E0,-3.869777366E0,-5.870810922E0,7.823227888E0
1.568608033E1,2.561631848E0,-4.011284662E0,-5.337320906E0,7.151178702E0
1.569603133E1,2.137079114E0,-4.011626725E0,-4.244878589E0,6.219264454E0
1.570598333E1,1.840397824E0,-3.820511066E0,-3.167895725E0,5.293291252E0
1.571593433E1,1.292204107E0,-3.694156244E0,-3.213132709E0,5.063674912E0
1.572588533E1,1.560199396E0,-3.491564255E0,-3.919163534E0,5.475863942E0
1.573583633E1,2.229707635E0,-3.128671433E0,-4.172180741E0,5.671619982E0
1.574578733E1,2.338397141E0,-2.871462942E0,-3.792221652E0,5.300409953E0
1.575573833E1,2.506089147E0,-2.393761210E0,-2.059205166E0,4.031240685E0
1.576568933E1,2.209911594E0,-1.700273248E0,6.611972988E-1,2.865627373E0
1.577564133E1,1.260826925E0,-1.631201259E0,2.582680070E-1,2.077788354E0
1.578559233E1,1.158169260E0,-1.616066911E0,5.786094707E-1,2.070704521E0
1.579554333E1,1.858919026E-1,-1.282532959E0,6.585859323E-1,1.453678789E0
1.580549433E1,-3.220087972E-1,-1.045196815E0,3.537395900E-1,1.149459762E0
1.581544533E1,-4.807346821E-2,-5.325568002E-1,8.846854824E-1,1.033729271E0
1.582539633E1,-7.537229083E-1,5.536670029E-2,1.146089351E0,1.372838117E0
1.583534733E1,-9.147736461E-1,2.018827218E-1,1.403456887E0,1.687382201E0
1.584529933E1,2.193644348E-1,4.337464571E-3,1.907915477E0,1.920489791E0
1.585525033E1,1.751102509E0,-2.455666852E-1,3.198864918E0,3.655051266E0
1.586520133E1,2.432329006E0,-6.197089648E-1,4.629080418E0,5.265799950E0
1.587515233E1,2.460221833E0,-1.126728635E0,4.933067805E0,5.626487968E0
1.588510333E1,1.799558677E0,-1.569884432E0,4.681306579E0,5.255243082E0
1.589505433E1,1.027185344E0,-1.895766132E0,5.001824629E0,5.446768636E0
1.590500533E1,5.546585445E-1,-2.121746984E0,5.528079300E0,5.947194054E0
1.591495633E1,5.336628011E-1,-2.090371410E0,5.459765110E0,5.870560763E0
1.592490833E1,6.753225638E-1,-1.579989005E0,4.716406245E0,5.019652746E0
1.593485933E1,9.766800186E-1,-9.306042516E-1,3.525847650E0,3.775119836E0
1.594481033E1,9.299670513E-1,-6.241920251E-1,2.213382209E0,2.480627986E0
1.595476133E1,9.917497551E-1,-2.727615005E-1,1.095980467E0,1.503043445E0
1.596471233E1,1.061268033E0,-3.437578082E-2,5.508778811E-1,1.196218196E0
1.597466333E1,1.132931654E0,1.695593137E-1,-3.116525012E-1,1.187186496E0
1.598461433E1,1.422397773E0,4.026983267E-1,-6.097710371E-1,1.599125412E0
1.599456633E1,9.596067336E-1,7.947184682E-2,2.088204432E-1,9.852750048E-1
1.600451733E1,3.889500609E-1,-4.308754742E-1,7.890946162E-1,9.795948843E-1
1.601446833E1,2.071637808E-1,-6.857497573E-1,1.114441296E0,1.324820352E0
1.602441933E1,1.264703044E-1,-9.006477964E-1,1.245505466E0,1.542220820E0
1.603437033E1,-1.635305420E-1,-1.206144934E0,8.932311881E-1,1.509764814E0
1.604432133E1,-8.810502684E-1,-1.538974296E0,2.311006737E-1,1.788322952E0
1.605427233E1,-1.662685299E0,-1.888237842E0,-2.849108452E-1,2.532022658E0
1.606422433E1,-2.248437582E0,-2.094853300E0,-5.754677618E-1,3.126506846E0
1.607417533E1,-1.930511604E0,-1.972522532E0,-9.448585939E-1,2.917272348E0
1.608412658E1,-1.227205143E0,-1.574409592E0,-9.320333111E-1,2.203062441E0
1.609407758E1,-5.636967319E-1,-1.280801014E0,-1.027772112E0,1.736237529E0
1.610402858E1,-3.491489410E-2,-1.085109909E0,-1.160910873E0,1.589464256E0
1.611397958E1,2.089990756E-1,-1.205885902E0,-8.600710434E-1,1.495848797E0
1.612393058E1,4.763840613E-1,-1.388400891E0,-5.446102506E-1,1.565630587E0
1.613388158E1,2.997418691E-1,-1.657831233E0,-4.070574260E-1,1.733189353E0
1.614383358E1,-9.161856025E-3,-2.028810169E0,-3.651849300E-1,2.061435101E0
1.615378458E1,-8.721882284E-2,-2.179027478E0,-4.201072419E-1,2.220868742E0
1.616373558E1,-1.463455752E-1,-2.212971734E0,-4.205756038E-1,2.257331337E0
1.617368658E1,-3.895574404E-1,-2.195292093E0,-5.199180436E-1,2.289405413E0
1.618363758E1,-6.722451742E-1,-2.109202368E0,-7.212774396E-1,2.328280341E0
1.619358858E1,-8.408470063E-1,-1.934633160E0,-9.444346708E-1,2.311230408E0
1.620353958E1,-7.621811981E-1,-1.675047190E0,-1.040800878E0,2.114230294E0
1.621349158E1,-5.809635597E-1,-1.466061856E0,-1.033282528E0,1.885345805E0
1.622344258E1,-2.755631939E-1,-1.308053132E0,-5.744140935E-1,1.454953477E0
1.623339358E1,-1.095154256E-1,-1.235393876E0,5.110875785E-2,1.241291167E0
1.624334458E1,-2.043777287E-2,-1.158425222E0,7.093128669E-1,1.358488661E0
1.625329558E1,-2.269055888E-2,-1.167574360E0,1.344918072E0,1.781165172E0
1.626324658E1,-6.017369628E-2,-1.270944947E0,1.710663165E0,2.131968667E0
1.627319758E1,1.350122094E-3,-1.343448082E0,2.012730326E0,2.419904531E0
1.628314958E1,1.140293299E-1,-1.428918003E0,2.329375765E0,2.735105263E0
1.629310058E1,1.636648817E-1,-1.555862224E0,2.488344601E0,2.939277515E0
1.630305158E1,2.963718264E-1,-1.663100744E0,2.486712644E0,3.006240196E0
1.631300258E1,4.644924326E-1,-1.599343874E0,2.530712941E0,3.029548157E0
1.632295358E1,5.680739576E-1,-1.524306555E0,2.503334523E0,2.985448414E0
1.633290458E1,5.089015970E-1,-1.433451934E0,2.384554769E0,2.828403566E0
1.634285558E1,4.274864280E-1,-1.268206696E0,2.005572749E0,2.411102429E0
1.635280758E1,3.911554845E-1,-1.031520762E0,1.491168630E0,1.854891258E0
1.636275858E1,3.077258036E-1,-7.816265523E-1,1.049374065E0,1.344180481E0
1.637270958E1,2.105848405E-1,-5.677079219E-1,6.761883903E-1,9.076722970E-1
1.638266058E1,1.754752341E-1,-4.593824047E-1,3.900964075E-1,6.276933636E-1
1.639261158E1,2.336161458E-1,-3.165483749E-1,8.183178306E-2,4.018405380E-1
1.640256258E1,3.035011902E-1,-3.091300124E-1,6.847557306E-2,4.385923405E-1
1.641251358E1,3.839837283E-1,-3.991695321E-1,6.779203355E-2,5.580103751E-1
1.642246458E1,3.618520170E-1,-5.375590932E-1,7.092438698E-2,6.518718660E-1
1.643241658E1,2.542313817E-1,-7.352961391E-1,1.930165887E-2,7.782458234E-1
1.644236758E1,8.457354248E-2,-8.329686141E-1,-2.779807252E-1,8.821919744E-1
1.645231858E1,-1.762818575E-2,-8.966570717E-1,-6.113772672E-1,1.085397079E0
1.646226958E1,1.353270820E-1,-9.185408610E-1,-6.382598412E-1,1.126679350E0
1.647222058E1,3.615102473E-1,-9.619856733E-1,-6.165678406E-1,1.198441487E0
1.648217158E1,5.645121261E-1,-1.036761037E0,-5.898185831E-1,1.319633793E0
1.649212258E1,5.638937831E-1,-1.156721928E0,-6.834412766E-1,1.457077141E0
1.650207458E1,4.343074974E-1,-1.025245530E0,-2.336524571E0,2.588261669E0
1.651202558E1,8.429924959E-1,-1.188472309E0,-9.393686432E-1,1.733642473E0
1.652197658E1,1.050714832E0,-1.298107018E0,-9.692672110E-1,1.930948579E0
1.653192758E1,1.124507863E0,-1.247119297E0,-5.481215036E-1,1.766426239E0
1.654187858E1,1.126512581E0,-1.533568545E0,-2.470121169E-1,1.918822051E0
1.655182958E1,1.159804873E0,-1.811202530E0,-2.421443099E-1,2.164309547E0
1.656178058E1,1.248953861E0,-1.932568508E0,-4.088957906E-3,2.301026620E0
1.657173258E1,1.178914889E0,-2.002361459E0,3.047802687E-2,2.323837481E0
1.658168358E1,8.061538678E-1,-2.109094779E0,5.156659484E-3,2.257917500E0
1.659163458E1,5.794035226E-1,-2.096657166E0,-9.150307775E-2,2.177166169E0
